ExperimentName	Subject	Session	Clock.Information	DataFile.Basename	Display.RefreshRate	ExperimentVersion	Group	RandomSeed	RuntimeCapabilities	RuntimeVersion	RuntimeVersionExpected	SessionDate	SessionStartDateTimeUtc	SessionTime	StudioVersion	Block	corAns	Experiment	Experiment.Cycle	Experiment.Sample	jitter	probNum	probType	probVer	Procedure	Running	slot1	slot10	slot11	slot12	slot2	slot3	slot4	slot5	slot6	slot7	slot8	slot9	sourceType	stimulus.ACC	stimulus.CRESP	stimulus.RESP	stimulus.RT	stimulus.RTTime	target1Type	target2Type
Fractal Experiment	413	1	<?xml version="1.0"?>\n<Clock xmlns:dt="urn:schemas-microsoft-com:datatypes"><Description dt:dt="string">E-Prime Primary Realtime Clock</Description><StartTime><Timestamp dt:dt="int">0</Timestamp><DateUtc dt:dt="string">2016-01-21T21:16:19Z</DateUtc></StartTime><FrequencyChanges><FrequencyChange><Frequency dt:dt="r8">2337939</Frequency><Timestamp dt:dt="r8">3449495124231</Timestamp><Current dt:dt="r8">0</Current><DateUtc dt:dt="string">2016-01-21T21:16:19Z</DateUtc></FrequencyChange></FrequencyChanges></Clock>\n	Fractal Experiment-413-1	60.020	1.0.0.253	1	636860580	Standard	2.0.10.356	2.0.10.356	01-21-2016	1/21/2016 9:16:19 PM	15:16:19	2.0.10.252	1	1	1	1	1	858	57	a	a4	fractal	Experiment	Images\fractal168.png	Images\fractal172.png	Images\fractal172.png	Images\fractal172.png	Images\fractal168.png	Images\fractal169.png	Images\fractal169.png	Images\fractal170.png	Images\fractal170.png	Images\fractal171.png	Images\fractal171.png	Images\fractal172.png	d	1	1	1	5578	109484	d	s
Fractal Experiment	413	1	<?xml version="1.0"?>\n<Clock xmlns:dt="urn:schemas-microsoft-com:datatypes"><Description dt:dt="string">E-Prime Primary Realtime Clock</Description><StartTime><Timestamp dt:dt="int">0</Timestamp><DateUtc dt:dt="string">2016-01-21T21:16:19Z</DateUtc></StartTime><FrequencyChanges><FrequencyChange><Frequency dt:dt="r8">2337939</Frequency><Timestamp dt:dt="r8">3449495124231</Timestamp><Current dt:dt="r8">0</Current><DateUtc dt:dt="string">2016-01-21T21:16:19Z</DateUtc></FrequencyChange></FrequencyChanges></Clock>\n	Fractal Experiment-413-1	60.020	1.0.0.253	1	636860580	Standard	2.0.10.356	2.0.10.356	01-21-2016	1/21/2016 9:16:19 PM	15:16:19	2.0.10.252	2	1	2	1	2	572	69	s	s5	fractal	Experiment	Images\fractal216.png	Images\fractal316.png	Images\fractal317.png	Images\fractal318.png	Images\fractal216.png	Images\fractal217.png	Images\fractal217.png	Images\fractal448.png	Images\fractal449.png	Images\fractal450.png	Images\fractal451.png	Images\fractal316.png	ss	0	1	2	9889	121076	dd	sd
Fractal Experiment	413	1	<?xml version="1.0"?>\n<Clock xmlns:dt="urn:schemas-microsoft-com:datatypes"><Description dt:dt="string">E-Prime Primary Realtime Clock</Description><StartTime><Timestamp dt:dt="int">0</Timestamp><DateUtc dt:dt="string">2016-01-21T21:16:19Z</DateUtc></StartTime><FrequencyChanges><FrequencyChange><Frequency dt:dt="r8">2337939</Frequency><Timestamp dt:dt="r8">3449495124231</Timestamp><Current dt:dt="r8">0</Current><DateUtc dt:dt="string">2016-01-21T21:16:19Z</DateUtc></FrequencyChange></FrequencyChanges></Clock>\n	Fractal Experiment-413-1	60.020	1.0.0.253	1	636860580	Standard	2.0.10.356	2.0.10.356	01-21-2016	1/21/2016 9:16:19 PM	15:16:19	2.0.10.252	3	2	3	1	3	855	48	a	a2	fractal	Experiment	Images\fractal124.png	Images\fractal127.png	Images\fractal127.png	Images\fractal127.png	Images\fractal124.png	Images\fractal124.png	Images\fractal124.png	Images\fractal125.png	Images\fractal125.png	Images\fractal126.png	Images\fractal126.png	Images\fractal127.png	s	0	2	1	4218	127252	d	s
Fractal Experiment	413	1	<?xml version="1.0"?>\n<Clock xmlns:dt="urn:schemas-microsoft-com:datatypes"><Description dt:dt="string">E-Prime Primary Realtime Clock</Description><StartTime><Timestamp dt:dt="int">0</Timestamp><DateUtc dt:dt="string">2016-01-21T21:16:19Z</DateUtc></StartTime><FrequencyChanges><FrequencyChange><Frequency dt:dt="r8">2337939</Frequency><Timestamp dt:dt="r8">3449495124231</Timestamp><Current dt:dt="r8">0</Current><DateUtc dt:dt="string">2016-01-21T21:16:19Z</DateUtc></FrequencyChange></FrequencyChanges></Clock>\n	Fractal Experiment-413-1	60.020	1.0.0.253	1	636860580	Standard	2.0.10.356	2.0.10.356	01-21-2016	1/21/2016 9:16:19 PM	15:16:19	2.0.10.252	4	2	4	1	4	601	26	p	p2	fractal	Experiment	Images\fractal51.png	Images\fractal51.png	Images\fractal51.png	Images\fractal51.png	Images\fractal51.png	Images\fractal51.png	Images\fractal51.png	Images\fractal52.png	Images\fractal52.png	Images\fractal52.png	Images\fractal52.png	Images\fractal51.png	s	1	2	2	1376	130340	d	s
Fractal Experiment	413	1	<?xml version="1.0"?>\n<Clock xmlns:dt="urn:schemas-microsoft-com:datatypes"><Description dt:dt="string">E-Prime Primary Realtime Clock</Description><StartTime><Timestamp dt:dt="int">0</Timestamp><DateUtc dt:dt="string">2016-01-21T21:16:19Z</DateUtc></StartTime><FrequencyChanges><FrequencyChange><Frequency dt:dt="r8">2337939</Frequency><Timestamp dt:dt="r8">3449495124231</Timestamp><Current dt:dt="r8">0</Current><DateUtc dt:dt="string">2016-01-21T21:16:19Z</DateUtc></FrequencyChange></FrequencyChanges></Clock>\n	Fractal Experiment-413-1	60.020	1.0.0.253	1	636860580	Standard	2.0.10.356	2.0.10.356	01-21-2016	1/21/2016 9:16:19 PM	15:16:19	2.0.10.252	5	2	5	1	5	699	68	s	s4	fractal	Experiment	Images\fractal214.png	Images\fractal230.png	Images\fractal231.png	Images\fractal231.png	Images\fractal214.png	Images\fractal215.png	Images\fractal215.png	Images\fractal376.png	Images\fractal377.png	Images\fractal378.png	Images\fractal378.png	Images\fractal230.png	ss	0	2	1	6169	138316	ds	ss
Fractal Experiment	413	1	<?xml version="1.0"?>\n<Clock xmlns:dt="urn:schemas-microsoft-com:datatypes"><Description dt:dt="string">E-Prime Primary Realtime Clock</Description><StartTime><Timestamp dt:dt="int">0</Timestamp><DateUtc dt:dt="string">2016-01-21T21:16:19Z</DateUtc></StartTime><FrequencyChanges><FrequencyChange><Frequency dt:dt="r8">2337939</Frequency><Timestamp dt:dt="r8">3449495124231</Timestamp><Current dt:dt="r8">0</Current><DateUtc dt:dt="string">2016-01-21T21:16:19Z</DateUtc></FrequencyChange></FrequencyChanges></Clock>\n	Fractal Experiment-413-1	60.020	1.0.0.253	1	636860580	Standard	2.0.10.356	2.0.10.356	01-21-2016	1/21/2016 9:16:19 PM	15:16:19	2.0.10.252	6	2	6	1	6	644	23	p	p2	fractal	Experiment	Images\fractal45.png	Images\fractal45.png	Images\fractal45.png	Images\fractal45.png	Images\fractal45.png	Images\fractal45.png	Images\fractal45.png	Images\fractal46.png	Images\fractal46.png	Images\fractal46.png	Images\fractal46.png	Images\fractal45.png	s	1	2	2	2663	142740	d	s
Fractal Experiment	413	1	<?xml version="1.0"?>\n<Clock xmlns:dt="urn:schemas-microsoft-com:datatypes"><Description dt:dt="string">E-Prime Primary Realtime Clock</Description><StartTime><Timestamp dt:dt="int">0</Timestamp><DateUtc dt:dt="string">2016-01-21T21:16:19Z</DateUtc></StartTime><FrequencyChanges><FrequencyChange><Frequency dt:dt="r8">2337939</Frequency><Timestamp dt:dt="r8">3449495124231</Timestamp><Current dt:dt="r8">0</Current><DateUtc dt:dt="string">2016-01-21T21:16:19Z</DateUtc></FrequencyChange></FrequencyChanges></Clock>\n	Fractal Experiment-413-1	60.020	1.0.0.253	1	636860580	Standard	2.0.10.356	2.0.10.356	01-21-2016	1/21/2016 9:16:19 PM	15:16:19	2.0.10.252	7	2	7	1	7	853	49	a	a3	fractal	Experiment	Images\fractal128.png	Images\fractal131.png	Images\fractal132.png	Images\fractal132.png	Images\fractal128.png	Images\fractal129.png	Images\fractal129.png	Images\fractal130.png	Images\fractal130.png	Images\fractal130.png	Images\fractal130.png	Images\fractal131.png	d	1	2	2	11999	156708	s	d
Fractal Experiment	413	1	<?xml version="1.0"?>\n<Clock xmlns:dt="urn:schemas-microsoft-com:datatypes"><Description dt:dt="string">E-Prime Primary Realtime Clock</Description><StartTime><Timestamp dt:dt="int">0</Timestamp><DateUtc dt:dt="string">2016-01-21T21:16:19Z</DateUtc></StartTime><FrequencyChanges><FrequencyChange><Frequency dt:dt="r8">2337939</Frequency><Timestamp dt:dt="r8">3449495124231</Timestamp><Current dt:dt="r8">0</Current><DateUtc dt:dt="string">2016-01-21T21:16:19Z</DateUtc></FrequencyChange></FrequencyChanges></Clock>\n	Fractal Experiment-413-1	60.020	1.0.0.253	1	636860580	Standard	2.0.10.356	2.0.10.356	01-21-2016	1/21/2016 9:16:19 PM	15:16:19	2.0.10.252	8	1	8	1	8	651	38	a	a1	fractal	Experiment	Images\fractal84.png	Images\fractal86.png	Images\fractal87.png	Images\fractal87.png	Images\fractal84.png	Images\fractal84.png	Images\fractal84.png	Images\fractal85.png	Images\fractal85.png	Images\fractal85.png	Images\fractal85.png	Images\fractal86.png	s	1	1	1	3924	162395	s	d
Fractal Experiment	413	1	<?xml version="1.0"?>\n<Clock xmlns:dt="urn:schemas-microsoft-com:datatypes"><Description dt:dt="string">E-Prime Primary Realtime Clock</Description><StartTime><Timestamp dt:dt="int">0</Timestamp><DateUtc dt:dt="string">2016-01-21T21:16:19Z</DateUtc></StartTime><FrequencyChanges><FrequencyChange><Frequency dt:dt="r8">2337939</Frequency><Timestamp dt:dt="r8">3449495124231</Timestamp><Current dt:dt="r8">0</Current><DateUtc dt:dt="string">2016-01-21T21:16:19Z</DateUtc></FrequencyChange></FrequencyChanges></Clock>\n	Fractal Experiment-413-1	60.020	1.0.0.253	1	636860580	Standard	2.0.10.356	2.0.10.356	01-21-2016	1/21/2016 9:16:19 PM	15:16:19	2.0.10.252	9	2	9	1	9	973	25	p	p2	fractal	Experiment	Images\fractal49.png	Images\fractal49.png	Images\fractal49.png	Images\fractal49.png	Images\fractal49.png	Images\fractal49.png	Images\fractal49.png	Images\fractal50.png	Images\fractal50.png	Images\fractal50.png	Images\fractal50.png	Images\fractal49.png	s	1	2	2	2638	167107	d	s
Fractal Experiment	413	1	<?xml version="1.0"?>\n<Clock xmlns:dt="urn:schemas-microsoft-com:datatypes"><Description dt:dt="string">E-Prime Primary Realtime Clock</Description><StartTime><Timestamp dt:dt="int">0</Timestamp><DateUtc dt:dt="string">2016-01-21T21:16:19Z</DateUtc></StartTime><FrequencyChanges><FrequencyChange><Frequency dt:dt="r8">2337939</Frequency><Timestamp dt:dt="r8">3449495124231</Timestamp><Current dt:dt="r8">0</Current><DateUtc dt:dt="string">2016-01-21T21:16:19Z</DateUtc></FrequencyChange></FrequencyChanges></Clock>\n	Fractal Experiment-413-1	60.020	1.0.0.253	1	636860580	Standard	2.0.10.356	2.0.10.356	01-21-2016	1/21/2016 9:16:19 PM	15:16:19	2.0.10.252	10	1	10	1	10	721	37	a	a1	fractal	Experiment	Images\fractal80.png	Images\fractal82.png	Images\fractal83.png	Images\fractal83.png	Images\fractal80.png	Images\fractal80.png	Images\fractal80.png	Images\fractal81.png	Images\fractal81.png	Images\fractal81.png	Images\fractal81.png	Images\fractal82.png	s	1	1	1	7357	176291	s	d
Fractal Experiment	413	1	<?xml version="1.0"?>\n<Clock xmlns:dt="urn:schemas-microsoft-com:datatypes"><Description dt:dt="string">E-Prime Primary Realtime Clock</Description><StartTime><Timestamp dt:dt="int">0</Timestamp><DateUtc dt:dt="string">2016-01-21T21:16:19Z</DateUtc></StartTime><FrequencyChanges><FrequencyChange><Frequency dt:dt="r8">2337939</Frequency><Timestamp dt:dt="r8">3449495124231</Timestamp><Current dt:dt="r8">0</Current><DateUtc dt:dt="string">2016-01-21T21:16:19Z</DateUtc></FrequencyChange></FrequencyChanges></Clock>\n	Fractal Experiment-413-1	60.020	1.0.0.253	1	636860580	Standard	2.0.10.356	2.0.10.356	01-21-2016	1/21/2016 9:16:19 PM	15:16:19	2.0.10.252	11	1	11	1	11	894	13	p	p1	fractal	Experiment	Images\fractal25.png	Images\fractal26.png	Images\fractal26.png	Images\fractal26.png	Images\fractal25.png	Images\fractal25.png	Images\fractal25.png	Images\fractal25.png	Images\fractal25.png	Images\fractal25.png	Images\fractal25.png	Images\fractal26.png	s	1	1	1	11913	190211	s	d
Fractal Experiment	413	1	<?xml version="1.0"?>\n<Clock xmlns:dt="urn:schemas-microsoft-com:datatypes"><Description dt:dt="string">E-Prime Primary Realtime Clock</Description><StartTime><Timestamp dt:dt="int">0</Timestamp><DateUtc dt:dt="string">2016-01-21T21:16:19Z</DateUtc></StartTime><FrequencyChanges><FrequencyChange><Frequency dt:dt="r8">2337939</Frequency><Timestamp dt:dt="r8">3449495124231</Timestamp><Current dt:dt="r8">0</Current><DateUtc dt:dt="string">2016-01-21T21:16:19Z</DateUtc></FrequencyChange></FrequencyChanges></Clock>\n	Fractal Experiment-413-1	60.020	1.0.0.253	1	636860580	Standard	2.0.10.356	2.0.10.356	01-21-2016	1/21/2016 9:16:19 PM	15:16:19	2.0.10.252	12	1	12	1	12	950	60	a	a4	fractal	Experiment	Images\fractal183.png	Images\fractal187.png	Images\fractal187.png	Images\fractal187.png	Images\fractal183.png	Images\fractal184.png	Images\fractal184.png	Images\fractal185.png	Images\fractal185.png	Images\fractal186.png	Images\fractal186.png	Images\fractal187.png	d	1	1	1	4103	196379	d	s
Fractal Experiment	413	1	<?xml version="1.0"?>\n<Clock xmlns:dt="urn:schemas-microsoft-com:datatypes"><Description dt:dt="string">E-Prime Primary Realtime Clock</Description><StartTime><Timestamp dt:dt="int">0</Timestamp><DateUtc dt:dt="string">2016-01-21T21:16:19Z</DateUtc></StartTime><FrequencyChanges><FrequencyChange><Frequency dt:dt="r8">2337939</Frequency><Timestamp dt:dt="r8">3449495124231</Timestamp><Current dt:dt="r8">0</Current><DateUtc dt:dt="string">2016-01-21T21:16:19Z</DateUtc></FrequencyChange></FrequencyChanges></Clock>\n	Fractal Experiment-413-1	60.020	1.0.0.253	1	636860580	Standard	2.0.10.356	2.0.10.356	01-21-2016	1/21/2016 9:16:19 PM	15:16:19	2.0.10.252	13	1	13	1	13	952	75	s	s11	fractal	Experiment	Images\fractal262.png	Images\fractal236.png	Images\fractal237.png	Images\fractal237.png	Images\fractal262.png	Images\fractal263.png	Images\fractal264.png	Images\fractal286.png	Images\fractal286.png	Images\fractal287.png	Images\fractal288.png	Images\fractal236.png	sd	1	1	1	6273	204714	sd	ss
Fractal Experiment	413	1	<?xml version="1.0"?>\n<Clock xmlns:dt="urn:schemas-microsoft-com:datatypes"><Description dt:dt="string">E-Prime Primary Realtime Clock</Description><StartTime><Timestamp dt:dt="int">0</Timestamp><DateUtc dt:dt="string">2016-01-21T21:16:19Z</DateUtc></StartTime><FrequencyChanges><FrequencyChange><Frequency dt:dt="r8">2337939</Frequency><Timestamp dt:dt="r8">3449495124231</Timestamp><Current dt:dt="r8">0</Current><DateUtc dt:dt="string">2016-01-21T21:16:19Z</DateUtc></FrequencyChange></FrequencyChanges></Clock>\n	Fractal Experiment-413-1	60.020	1.0.0.253	1	636860580	Standard	2.0.10.356	2.0.10.356	01-21-2016	1/21/2016 9:16:19 PM	15:16:19	2.0.10.252	14	2	14	1	14	907	96	s	s32	fractal	Experiment	Images\fractal428.png	Images\fractal493.png	Images\fractal494.png	Images\fractal495.png	Images\fractal429.png	Images\fractal430.png	Images\fractal431.png	Images\fractal397.png	Images\fractal398.png	Images\fractal399.png	Images\fractal399.png	Images\fractal492.png	dd	1	2	2	8800	215538	ds	dd
Fractal Experiment	413	1	<?xml version="1.0"?>\n<Clock xmlns:dt="urn:schemas-microsoft-com:datatypes"><Description dt:dt="string">E-Prime Primary Realtime Clock</Description><StartTime><Timestamp dt:dt="int">0</Timestamp><DateUtc dt:dt="string">2016-01-21T21:16:19Z</DateUtc></StartTime><FrequencyChanges><FrequencyChange><Frequency dt:dt="r8">2337939</Frequency><Timestamp dt:dt="r8">3449495124231</Timestamp><Current dt:dt="r8">0</Current><DateUtc dt:dt="string">2016-01-21T21:16:19Z</DateUtc></FrequencyChange></FrequencyChanges></Clock>\n	Fractal Experiment-413-1	60.020	1.0.0.253	1	636860580	Standard	2.0.10.356	2.0.10.356	01-21-2016	1/21/2016 9:16:19 PM	15:16:19	2.0.10.252	15	2	15	1	15	567	42	a	a2	fractal	Experiment	Images\fractal100.png	Images\fractal103.png	Images\fractal103.png	Images\fractal103.png	Images\fractal100.png	Images\fractal100.png	Images\fractal100.png	Images\fractal101.png	Images\fractal101.png	Images\fractal102.png	Images\fractal102.png	Images\fractal103.png	s	1	2	2	2200	219418	d	s
Fractal Experiment	413	1	<?xml version="1.0"?>\n<Clock xmlns:dt="urn:schemas-microsoft-com:datatypes"><Description dt:dt="string">E-Prime Primary Realtime Clock</Description><StartTime><Timestamp dt:dt="int">0</Timestamp><DateUtc dt:dt="string">2016-01-21T21:16:19Z</DateUtc></StartTime><FrequencyChanges><FrequencyChange><Frequency dt:dt="r8">2337939</Frequency><Timestamp dt:dt="r8">3449495124231</Timestamp><Current dt:dt="r8">0</Current><DateUtc dt:dt="string">2016-01-21T21:16:19Z</DateUtc></FrequencyChange></FrequencyChanges></Clock>\n	Fractal Experiment-413-1	60.020	1.0.0.253	1	636860580	Standard	2.0.10.356	2.0.10.356	01-21-2016	1/21/2016 9:16:19 PM	15:16:19	2.0.10.252	16	1	16	1	16	830	15	p	p1	fractal	Experiment	Images\fractal29.png	Images\fractal30.png	Images\fractal30.png	Images\fractal30.png	Images\fractal29.png	Images\fractal29.png	Images\fractal29.png	Images\fractal29.png	Images\fractal29.png	Images\fractal29.png	Images\fractal29.png	Images\fractal30.png	s	0	1	2	8923	230306	s	d
Fractal Experiment	413	1	<?xml version="1.0"?>\n<Clock xmlns:dt="urn:schemas-microsoft-com:datatypes"><Description dt:dt="string">E-Prime Primary Realtime Clock</Description><StartTime><Timestamp dt:dt="int">0</Timestamp><DateUtc dt:dt="string">2016-01-21T21:16:19Z</DateUtc></StartTime><FrequencyChanges><FrequencyChange><Frequency dt:dt="r8">2337939</Frequency><Timestamp dt:dt="r8">3449495124231</Timestamp><Current dt:dt="r8">0</Current><DateUtc dt:dt="string">2016-01-21T21:16:19Z</DateUtc></FrequencyChange></FrequencyChanges></Clock>\n	Fractal Experiment-413-1	60.020	1.0.0.253	1	636860580	Standard	2.0.10.356	2.0.10.356	01-21-2016	1/21/2016 9:16:19 PM	15:16:19	2.0.10.252	17	2	17	1	17	522	55	a	a3	fractal	Experiment	Images\fractal158.png	Images\fractal161.png	Images\fractal162.png	Images\fractal162.png	Images\fractal158.png	Images\fractal159.png	Images\fractal159.png	Images\fractal160.png	Images\fractal160.png	Images\fractal160.png	Images\fractal160.png	Images\fractal161.png	d	1	2	2	6832	238762	s	d
Fractal Experiment	413	1	<?xml version="1.0"?>\n<Clock xmlns:dt="urn:schemas-microsoft-com:datatypes"><Description dt:dt="string">E-Prime Primary Realtime Clock</Description><StartTime><Timestamp dt:dt="int">0</Timestamp><DateUtc dt:dt="string">2016-01-21T21:16:19Z</DateUtc></StartTime><FrequencyChanges><FrequencyChange><Frequency dt:dt="r8">2337939</Frequency><Timestamp dt:dt="r8">3449495124231</Timestamp><Current dt:dt="r8">0</Current><DateUtc dt:dt="string">2016-01-21T21:16:19Z</DateUtc></FrequencyChange></FrequencyChanges></Clock>\n	Fractal Experiment-413-1	60.020	1.0.0.253	1	636860580	Standard	2.0.10.356	2.0.10.356	01-21-2016	1/21/2016 9:16:19 PM	15:16:19	2.0.10.252	18	2	18	1	18	999	22	p	p2	fractal	Experiment	Images\fractal43.png	Images\fractal43.png	Images\fractal43.png	Images\fractal43.png	Images\fractal43.png	Images\fractal43.png	Images\fractal43.png	Images\fractal44.png	Images\fractal44.png	Images\fractal44.png	Images\fractal44.png	Images\fractal43.png	s	1	2	2	13701	254577	d	s
Fractal Experiment	413	1	<?xml version="1.0"?>\n<Clock xmlns:dt="urn:schemas-microsoft-com:datatypes"><Description dt:dt="string">E-Prime Primary Realtime Clock</Description><StartTime><Timestamp dt:dt="int">0</Timestamp><DateUtc dt:dt="string">2016-01-21T21:16:19Z</DateUtc></StartTime><FrequencyChanges><FrequencyChange><Frequency dt:dt="r8">2337939</Frequency><Timestamp dt:dt="r8">3449495124231</Timestamp><Current dt:dt="r8">0</Current><DateUtc dt:dt="string">2016-01-21T21:16:19Z</DateUtc></FrequencyChange></FrequencyChanges></Clock>\n	Fractal Experiment-413-1	60.020	1.0.0.253	1	636860580	Standard	2.0.10.356	2.0.10.356	01-21-2016	1/21/2016 9:16:19 PM	15:16:19	2.0.10.252	19	2	19	1	19	672	85	s	s21	fractal	Experiment	Images\fractal340.png	Images\fractal322.png	Images\fractal323.png	Images\fractal324.png	Images\fractal341.png	Images\fractal342.png	Images\fractal342.png	Images\fractal456.png	Images\fractal457.png	Images\fractal458.png	Images\fractal459.png	Images\fractal322.png	ds	0	2	1	9886	266241	dd	sd
Fractal Experiment	413	1	<?xml version="1.0"?>\n<Clock xmlns:dt="urn:schemas-microsoft-com:datatypes"><Description dt:dt="string">E-Prime Primary Realtime Clock</Description><StartTime><Timestamp dt:dt="int">0</Timestamp><DateUtc dt:dt="string">2016-01-21T21:16:19Z</DateUtc></StartTime><FrequencyChanges><FrequencyChange><Frequency dt:dt="r8">2337939</Frequency><Timestamp dt:dt="r8">3449495124231</Timestamp><Current dt:dt="r8">0</Current><DateUtc dt:dt="string">2016-01-21T21:16:19Z</DateUtc></FrequencyChange></FrequencyChanges></Clock>\n	Fractal Experiment-413-1	60.020	1.0.0.253	1	636860580	Standard	2.0.10.356	2.0.10.356	01-21-2016	1/21/2016 9:16:19 PM	15:16:19	2.0.10.252	20	1	20	1	20	602	1	p	p1	fractal	Experiment	Images\fractal1.png	Images\fractal2.png	Images\fractal2.png	Images\fractal2.png	Images\fractal1.png	Images\fractal1.png	Images\fractal1.png	Images\fractal1.png	Images\fractal1.png	Images\fractal1.png	Images\fractal1.png	Images\fractal2.png	s	0	1	2	3619	271569	s	d
Fractal Experiment	413	1	<?xml version="1.0"?>\n<Clock xmlns:dt="urn:schemas-microsoft-com:datatypes"><Description dt:dt="string">E-Prime Primary Realtime Clock</Description><StartTime><Timestamp dt:dt="int">0</Timestamp><DateUtc dt:dt="string">2016-01-21T21:16:19Z</DateUtc></StartTime><FrequencyChanges><FrequencyChange><Frequency dt:dt="r8">2337939</Frequency><Timestamp dt:dt="r8">3449495124231</Timestamp><Current dt:dt="r8">0</Current><DateUtc dt:dt="string">2016-01-21T21:16:19Z</DateUtc></FrequencyChange></FrequencyChanges></Clock>\n	Fractal Experiment-413-1	60.020	1.0.0.253	1	636860580	Standard	2.0.10.356	2.0.10.356	01-21-2016	1/21/2016 9:16:19 PM	15:16:19	2.0.10.252	21	1	21	1	21	605	87	s	s23	fractal	Experiment	Images\fractal346.png	Images\fractal473.png	Images\fractal474.png	Images\fractal475.png	Images\fractal347.png	Images\fractal348.png	Images\fractal348.png	Images\fractal295.png	Images\fractal295.png	Images\fractal296.png	Images\fractal297.png	Images\fractal472.png	ds	0	1	2	5663	278945	sd	dd
Fractal Experiment	413	1	<?xml version="1.0"?>\n<Clock xmlns:dt="urn:schemas-microsoft-com:datatypes"><Description dt:dt="string">E-Prime Primary Realtime Clock</Description><StartTime><Timestamp dt:dt="int">0</Timestamp><DateUtc dt:dt="string">2016-01-21T21:16:19Z</DateUtc></StartTime><FrequencyChanges><FrequencyChange><Frequency dt:dt="r8">2337939</Frequency><Timestamp dt:dt="r8">3449495124231</Timestamp><Current dt:dt="r8">0</Current><DateUtc dt:dt="string">2016-01-21T21:16:19Z</DateUtc></FrequencyChange></FrequencyChanges></Clock>\n	Fractal Experiment-413-1	60.020	1.0.0.253	1	636860580	Standard	2.0.10.356	2.0.10.356	01-21-2016	1/21/2016 9:16:19 PM	15:16:19	2.0.10.252	22	1	22	1	22	829	93	s	s29	fractal	Experiment	Images\fractal416.png	Images\fractal325.png	Images\fractal326.png	Images\fractal327.png	Images\fractal417.png	Images\fractal418.png	Images\fractal419.png	Images\fractal460.png	Images\fractal461.png	Images\fractal462.png	Images\fractal463.png	Images\fractal325.png	dd	0	1	2	8401	289297	dd	sd
Fractal Experiment	413	1	<?xml version="1.0"?>\n<Clock xmlns:dt="urn:schemas-microsoft-com:datatypes"><Description dt:dt="string">E-Prime Primary Realtime Clock</Description><StartTime><Timestamp dt:dt="int">0</Timestamp><DateUtc dt:dt="string">2016-01-21T21:16:19Z</DateUtc></StartTime><FrequencyChanges><FrequencyChange><Frequency dt:dt="r8">2337939</Frequency><Timestamp dt:dt="r8">3449495124231</Timestamp><Current dt:dt="r8">0</Current><DateUtc dt:dt="string">2016-01-21T21:16:19Z</DateUtc></FrequencyChange></FrequencyChanges></Clock>\n	Fractal Experiment-413-1	60.020	1.0.0.253	1	636860580	Standard	2.0.10.356	2.0.10.356	01-21-2016	1/21/2016 9:16:19 PM	15:16:19	2.0.10.252	23	1	23	1	23	690	4	p	p1	fractal	Experiment	Images\fractal7.png	Images\fractal8.png	Images\fractal8.png	Images\fractal8.png	Images\fractal7.png	Images\fractal7.png	Images\fractal7.png	Images\fractal7.png	Images\fractal7.png	Images\fractal7.png	Images\fractal7.png	Images\fractal8.png	s	1	1	1	2460	293569	s	d
Fractal Experiment	413	1	<?xml version="1.0"?>\n<Clock xmlns:dt="urn:schemas-microsoft-com:datatypes"><Description dt:dt="string">E-Prime Primary Realtime Clock</Description><StartTime><Timestamp dt:dt="int">0</Timestamp><DateUtc dt:dt="string">2016-01-21T21:16:19Z</DateUtc></StartTime><FrequencyChanges><FrequencyChange><Frequency dt:dt="r8">2337939</Frequency><Timestamp dt:dt="r8">3449495124231</Timestamp><Current dt:dt="r8">0</Current><DateUtc dt:dt="string">2016-01-21T21:16:19Z</DateUtc></FrequencyChange></FrequencyChanges></Clock>\n	Fractal Experiment-413-1	60.020	1.0.0.253	1	636860580	Standard	2.0.10.356	2.0.10.356	01-21-2016	1/21/2016 9:16:19 PM	15:16:19	2.0.10.252	24	2	24	1	24	842	78	s	s14	fractal	Experiment	Images\fractal271.png	Images\fractal368.png	Images\fractal369.png	Images\fractal369.png	Images\fractal271.png	Images\fractal272.png	Images\fractal273.png	Images\fractal436.png	Images\fractal437.png	Images\fractal438.png	Images\fractal439.png	Images\fractal367.png	sd	1	2	2	7995	303536	dd	ds
Fractal Experiment	413	1	<?xml version="1.0"?>\n<Clock xmlns:dt="urn:schemas-microsoft-com:datatypes"><Description dt:dt="string">E-Prime Primary Realtime Clock</Description><StartTime><Timestamp dt:dt="int">0</Timestamp><DateUtc dt:dt="string">2016-01-21T21:16:19Z</DateUtc></StartTime><FrequencyChanges><FrequencyChange><Frequency dt:dt="r8">2337939</Frequency><Timestamp dt:dt="r8">3449495124231</Timestamp><Current dt:dt="r8">0</Current><DateUtc dt:dt="string">2016-01-21T21:16:19Z</DateUtc></FrequencyChange></FrequencyChanges></Clock>\n	Fractal Experiment-413-1	60.020	1.0.0.253	1	636860580	Standard	2.0.10.356	2.0.10.356	01-21-2016	1/21/2016 9:16:19 PM	15:16:19	2.0.10.252	25	2	25	1	25	948	27	p	p2	fractal	Experiment	Images\fractal53.png	Images\fractal53.png	Images\fractal53.png	Images\fractal53.png	Images\fractal53.png	Images\fractal53.png	Images\fractal53.png	Images\fractal54.png	Images\fractal54.png	Images\fractal54.png	Images\fractal54.png	Images\fractal53.png	s	1	2	2	3058	340552	d	s
Fractal Experiment	413	1	<?xml version="1.0"?>\n<Clock xmlns:dt="urn:schemas-microsoft-com:datatypes"><Description dt:dt="string">E-Prime Primary Realtime Clock</Description><StartTime><Timestamp dt:dt="int">0</Timestamp><DateUtc dt:dt="string">2016-01-21T21:16:19Z</DateUtc></StartTime><FrequencyChanges><FrequencyChange><Frequency dt:dt="r8">2337939</Frequency><Timestamp dt:dt="r8">3449495124231</Timestamp><Current dt:dt="r8">0</Current><DateUtc dt:dt="string">2016-01-21T21:16:19Z</DateUtc></FrequencyChange></FrequencyChanges></Clock>\n	Fractal Experiment-413-1	60.020	1.0.0.253	1	636860580	Standard	2.0.10.356	2.0.10.356	01-21-2016	1/21/2016 9:16:19 PM	15:16:19	2.0.10.252	26	2	26	1	26	559	53	a	a3	fractal	Experiment	Images\fractal148.png	Images\fractal151.png	Images\fractal152.png	Images\fractal152.png	Images\fractal148.png	Images\fractal149.png	Images\fractal149.png	Images\fractal150.png	Images\fractal150.png	Images\fractal150.png	Images\fractal150.png	Images\fractal151.png	d	1	2	2	2207	344432	s	d
Fractal Experiment	413	1	<?xml version="1.0"?>\n<Clock xmlns:dt="urn:schemas-microsoft-com:datatypes"><Description dt:dt="string">E-Prime Primary Realtime Clock</Description><StartTime><Timestamp dt:dt="int">0</Timestamp><DateUtc dt:dt="string">2016-01-21T21:16:19Z</DateUtc></StartTime><FrequencyChanges><FrequencyChange><Frequency dt:dt="r8">2337939</Frequency><Timestamp dt:dt="r8">3449495124231</Timestamp><Current dt:dt="r8">0</Current><DateUtc dt:dt="string">2016-01-21T21:16:19Z</DateUtc></FrequencyChange></FrequencyChanges></Clock>\n	Fractal Experiment-413-1	60.020	1.0.0.253	1	636860580	Standard	2.0.10.356	2.0.10.356	01-21-2016	1/21/2016 9:16:19 PM	15:16:19	2.0.10.252	27	1	27	1	27	866	10	p	p1	fractal	Experiment	Images\fractal19.png	Images\fractal20.png	Images\fractal20.png	Images\fractal20.png	Images\fractal19.png	Images\fractal19.png	Images\fractal19.png	Images\fractal19.png	Images\fractal19.png	Images\fractal19.png	Images\fractal19.png	Images\fractal20.png	s	1	1	1	1097	347504	s	d
Fractal Experiment	413	1	<?xml version="1.0"?>\n<Clock xmlns:dt="urn:schemas-microsoft-com:datatypes"><Description dt:dt="string">E-Prime Primary Realtime Clock</Description><StartTime><Timestamp dt:dt="int">0</Timestamp><DateUtc dt:dt="string">2016-01-21T21:16:19Z</DateUtc></StartTime><FrequencyChanges><FrequencyChange><Frequency dt:dt="r8">2337939</Frequency><Timestamp dt:dt="r8">3449495124231</Timestamp><Current dt:dt="r8">0</Current><DateUtc dt:dt="string">2016-01-21T21:16:19Z</DateUtc></FrequencyChange></FrequencyChanges></Clock>\n	Fractal Experiment-413-1	60.020	1.0.0.253	1	636860580	Standard	2.0.10.356	2.0.10.356	01-21-2016	1/21/2016 9:16:19 PM	15:16:19	2.0.10.252	28	2	28	1	28	970	21	p	p2	fractal	Experiment	Images\fractal41.png	Images\fractal41.png	Images\fractal41.png	Images\fractal41.png	Images\fractal41.png	Images\fractal41.png	Images\fractal41.png	Images\fractal42.png	Images\fractal42.png	Images\fractal42.png	Images\fractal42.png	Images\fractal41.png	s	1	2	2	2314	351903	d	s
Fractal Experiment	413	1	<?xml version="1.0"?>\n<Clock xmlns:dt="urn:schemas-microsoft-com:datatypes"><Description dt:dt="string">E-Prime Primary Realtime Clock</Description><StartTime><Timestamp dt:dt="int">0</Timestamp><DateUtc dt:dt="string">2016-01-21T21:16:19Z</DateUtc></StartTime><FrequencyChanges><FrequencyChange><Frequency dt:dt="r8">2337939</Frequency><Timestamp dt:dt="r8">3449495124231</Timestamp><Current dt:dt="r8">0</Current><DateUtc dt:dt="string">2016-01-21T21:16:19Z</DateUtc></FrequencyChange></FrequencyChanges></Clock>\n	Fractal Experiment-413-1	60.020	1.0.0.253	1	636860580	Standard	2.0.10.356	2.0.10.356	01-21-2016	1/21/2016 9:16:19 PM	15:16:19	2.0.10.252	29	1	29	1	29	561	59	a	a4	fractal	Experiment	Images\fractal178.png	Images\fractal182.png	Images\fractal182.png	Images\fractal182.png	Images\fractal178.png	Images\fractal179.png	Images\fractal179.png	Images\fractal180.png	Images\fractal180.png	Images\fractal181.png	Images\fractal181.png	Images\fractal182.png	d	1	1	1	2115	355703	d	s
Fractal Experiment	413	1	<?xml version="1.0"?>\n<Clock xmlns:dt="urn:schemas-microsoft-com:datatypes"><Description dt:dt="string">E-Prime Primary Realtime Clock</Description><StartTime><Timestamp dt:dt="int">0</Timestamp><DateUtc dt:dt="string">2016-01-21T21:16:19Z</DateUtc></StartTime><FrequencyChanges><FrequencyChange><Frequency dt:dt="r8">2337939</Frequency><Timestamp dt:dt="r8">3449495124231</Timestamp><Current dt:dt="r8">0</Current><DateUtc dt:dt="string">2016-01-21T21:16:19Z</DateUtc></FrequencyChange></FrequencyChanges></Clock>\n	Fractal Experiment-413-1	60.020	1.0.0.253	1	636860580	Standard	2.0.10.356	2.0.10.356	01-21-2016	1/21/2016 9:16:19 PM	15:16:19	2.0.10.252	30	1	30	1	30	997	6	p	p1	fractal	Experiment	Images\fractal11.png	Images\fractal12.png	Images\fractal12.png	Images\fractal12.png	Images\fractal11.png	Images\fractal11.png	Images\fractal11.png	Images\fractal11.png	Images\fractal11.png	Images\fractal11.png	Images\fractal11.png	Images\fractal12.png	s	1	1	1	971	358791	s	d
Fractal Experiment	413	1	<?xml version="1.0"?>\n<Clock xmlns:dt="urn:schemas-microsoft-com:datatypes"><Description dt:dt="string">E-Prime Primary Realtime Clock</Description><StartTime><Timestamp dt:dt="int">0</Timestamp><DateUtc dt:dt="string">2016-01-21T21:16:19Z</DateUtc></StartTime><FrequencyChanges><FrequencyChange><Frequency dt:dt="r8">2337939</Frequency><Timestamp dt:dt="r8">3449495124231</Timestamp><Current dt:dt="r8">0</Current><DateUtc dt:dt="string">2016-01-21T21:16:19Z</DateUtc></FrequencyChange></FrequencyChanges></Clock>\n	Fractal Experiment-413-1	60.020	1.0.0.253	1	636860580	Standard	2.0.10.356	2.0.10.356	01-21-2016	1/21/2016 9:16:19 PM	15:16:19	2.0.10.252	31	2	31	1	31	680	28	p	p2	fractal	Experiment	Images\fractal55.png	Images\fractal55.png	Images\fractal55.png	Images\fractal55.png	Images\fractal55.png	Images\fractal55.png	Images\fractal55.png	Images\fractal56.png	Images\fractal56.png	Images\fractal56.png	Images\fractal56.png	Images\fractal55.png	s	1	2	2	934	361519	d	s
Fractal Experiment	413	1	<?xml version="1.0"?>\n<Clock xmlns:dt="urn:schemas-microsoft-com:datatypes"><Description dt:dt="string">E-Prime Primary Realtime Clock</Description><StartTime><Timestamp dt:dt="int">0</Timestamp><DateUtc dt:dt="string">2016-01-21T21:16:19Z</DateUtc></StartTime><FrequencyChanges><FrequencyChange><Frequency dt:dt="r8">2337939</Frequency><Timestamp dt:dt="r8">3449495124231</Timestamp><Current dt:dt="r8">0</Current><DateUtc dt:dt="string">2016-01-21T21:16:19Z</DateUtc></FrequencyChange></FrequencyChanges></Clock>\n	Fractal Experiment-413-1	60.020	1.0.0.253	1	636860580	Standard	2.0.10.356	2.0.10.356	01-21-2016	1/21/2016 9:16:19 PM	15:16:19	2.0.10.252	32	1	32	1	32	708	63	a	a4	fractal	Experiment	Images\fractal198.png	Images\fractal202.png	Images\fractal202.png	Images\fractal202.png	Images\fractal198.png	Images\fractal199.png	Images\fractal199.png	Images\fractal200.png	Images\fractal200.png	Images\fractal201.png	Images\fractal201.png	Images\fractal202.png	d	1	1	1	1535	364887	d	s
Fractal Experiment	413	1	<?xml version="1.0"?>\n<Clock xmlns:dt="urn:schemas-microsoft-com:datatypes"><Description dt:dt="string">E-Prime Primary Realtime Clock</Description><StartTime><Timestamp dt:dt="int">0</Timestamp><DateUtc dt:dt="string">2016-01-21T21:16:19Z</DateUtc></StartTime><FrequencyChanges><FrequencyChange><Frequency dt:dt="r8">2337939</Frequency><Timestamp dt:dt="r8">3449495124231</Timestamp><Current dt:dt="r8">0</Current><DateUtc dt:dt="string">2016-01-21T21:16:19Z</DateUtc></FrequencyChange></FrequencyChanges></Clock>\n	Fractal Experiment-413-1	60.020	1.0.0.253	1	636860580	Standard	2.0.10.356	2.0.10.356	01-21-2016	1/21/2016 9:16:19 PM	15:16:19	2.0.10.252	33	1	33	1	33	740	8	p	p1	fractal	Experiment	Images\fractal15.png	Images\fractal16.png	Images\fractal16.png	Images\fractal16.png	Images\fractal15.png	Images\fractal15.png	Images\fractal15.png	Images\fractal15.png	Images\fractal15.png	Images\fractal15.png	Images\fractal15.png	Images\fractal16.png	s	1	1	1	3369	370119	s	d
Fractal Experiment	413	1	<?xml version="1.0"?>\n<Clock xmlns:dt="urn:schemas-microsoft-com:datatypes"><Description dt:dt="string">E-Prime Primary Realtime Clock</Description><StartTime><Timestamp dt:dt="int">0</Timestamp><DateUtc dt:dt="string">2016-01-21T21:16:19Z</DateUtc></StartTime><FrequencyChanges><FrequencyChange><Frequency dt:dt="r8">2337939</Frequency><Timestamp dt:dt="r8">3449495124231</Timestamp><Current dt:dt="r8">0</Current><DateUtc dt:dt="string">2016-01-21T21:16:19Z</DateUtc></FrequencyChange></FrequencyChanges></Clock>\n	Fractal Experiment-413-1	60.020	1.0.0.253	1	636860580	Standard	2.0.10.356	2.0.10.356	01-21-2016	1/21/2016 9:16:19 PM	15:16:19	2.0.10.252	34	1	34	1	34	571	40	a	a1	fractal	Experiment	Images\fractal92.png	Images\fractal94.png	Images\fractal95.png	Images\fractal95.png	Images\fractal92.png	Images\fractal92.png	Images\fractal92.png	Images\fractal93.png	Images\fractal93.png	Images\fractal93.png	Images\fractal93.png	Images\fractal94.png	s	1	1	1	2416	374215	s	d
Fractal Experiment	413	1	<?xml version="1.0"?>\n<Clock xmlns:dt="urn:schemas-microsoft-com:datatypes"><Description dt:dt="string">E-Prime Primary Realtime Clock</Description><StartTime><Timestamp dt:dt="int">0</Timestamp><DateUtc dt:dt="string">2016-01-21T21:16:19Z</DateUtc></StartTime><FrequencyChanges><FrequencyChange><Frequency dt:dt="r8">2337939</Frequency><Timestamp dt:dt="r8">3449495124231</Timestamp><Current dt:dt="r8">0</Current><DateUtc dt:dt="string">2016-01-21T21:16:19Z</DateUtc></FrequencyChange></FrequencyChanges></Clock>\n	Fractal Experiment-413-1	60.020	1.0.0.253	1	636860580	Standard	2.0.10.356	2.0.10.356	01-21-2016	1/21/2016 9:16:19 PM	15:16:19	2.0.10.252	35	2	35	1	35	610	91	s	s27	fractal	Experiment	Images\fractal408.png	Images\fractal252.png	Images\fractal253.png	Images\fractal253.png	Images\fractal409.png	Images\fractal410.png	Images\fractal411.png	Images\fractal298.png	Images\fractal298.png	Images\fractal299.png	Images\fractal300.png	Images\fractal252.png	dd	0	2	1	10356	386303	sd	ss
Fractal Experiment	413	1	<?xml version="1.0"?>\n<Clock xmlns:dt="urn:schemas-microsoft-com:datatypes"><Description dt:dt="string">E-Prime Primary Realtime Clock</Description><StartTime><Timestamp dt:dt="int">0</Timestamp><DateUtc dt:dt="string">2016-01-21T21:16:19Z</DateUtc></StartTime><FrequencyChanges><FrequencyChange><Frequency dt:dt="r8">2337939</Frequency><Timestamp dt:dt="r8">3449495124231</Timestamp><Current dt:dt="r8">0</Current><DateUtc dt:dt="string">2016-01-21T21:16:19Z</DateUtc></FrequencyChange></FrequencyChanges></Clock>\n	Fractal Experiment-413-1	60.020	1.0.0.253	1	636860580	Standard	2.0.10.356	2.0.10.356	01-21-2016	1/21/2016 9:16:19 PM	15:16:19	2.0.10.252	36	2	36	1	36	882	92	s	s28	fractal	Experiment	Images\fractal412.png	Images\fractal254.png	Images\fractal255.png	Images\fractal255.png	Images\fractal413.png	Images\fractal414.png	Images\fractal415.png	Images\fractal385.png	Images\fractal386.png	Images\fractal387.png	Images\fractal387.png	Images\fractal254.png	dd	0	2	1	3522	391815	ds	ss
Fractal Experiment	413	1	<?xml version="1.0"?>\n<Clock xmlns:dt="urn:schemas-microsoft-com:datatypes"><Description dt:dt="string">E-Prime Primary Realtime Clock</Description><StartTime><Timestamp dt:dt="int">0</Timestamp><DateUtc dt:dt="string">2016-01-21T21:16:19Z</DateUtc></StartTime><FrequencyChanges><FrequencyChange><Frequency dt:dt="r8">2337939</Frequency><Timestamp dt:dt="r8">3449495124231</Timestamp><Current dt:dt="r8">0</Current><DateUtc dt:dt="string">2016-01-21T21:16:19Z</DateUtc></FrequencyChange></FrequencyChanges></Clock>\n	Fractal Experiment-413-1	60.020	1.0.0.253	1	636860580	Standard	2.0.10.356	2.0.10.356	01-21-2016	1/21/2016 9:16:19 PM	15:16:19	2.0.10.252	37	1	37	1	37	788	65	s	s1	fractal	Experiment	Images\fractal208.png	Images\fractal304.png	Images\fractal305.png	Images\fractal306.png	Images\fractal208.png	Images\fractal209.png	Images\fractal209.png	Images\fractal224.png	Images\fractal224.png	Images\fractal225.png	Images\fractal225.png	Images\fractal304.png	ss	1	1	1	3529	397238	ss	sd
Fractal Experiment	413	1	<?xml version="1.0"?>\n<Clock xmlns:dt="urn:schemas-microsoft-com:datatypes"><Description dt:dt="string">E-Prime Primary Realtime Clock</Description><StartTime><Timestamp dt:dt="int">0</Timestamp><DateUtc dt:dt="string">2016-01-21T21:16:19Z</DateUtc></StartTime><FrequencyChanges><FrequencyChange><Frequency dt:dt="r8">2337939</Frequency><Timestamp dt:dt="r8">3449495124231</Timestamp><Current dt:dt="r8">0</Current><DateUtc dt:dt="string">2016-01-21T21:16:19Z</DateUtc></FrequencyChange></FrequencyChanges></Clock>\n	Fractal Experiment-413-1	60.020	1.0.0.253	1	636860580	Standard	2.0.10.356	2.0.10.356	01-21-2016	1/21/2016 9:16:19 PM	15:16:19	2.0.10.252	38	1	38	1	38	546	12	p	p1	fractal	Experiment	Images\fractal23.png	Images\fractal24.png	Images\fractal24.png	Images\fractal24.png	Images\fractal23.png	Images\fractal23.png	Images\fractal23.png	Images\fractal23.png	Images\fractal23.png	Images\fractal23.png	Images\fractal23.png	Images\fractal24.png	s	1	1	1	2236	401142	s	d
Fractal Experiment	413	1	<?xml version="1.0"?>\n<Clock xmlns:dt="urn:schemas-microsoft-com:datatypes"><Description dt:dt="string">E-Prime Primary Realtime Clock</Description><StartTime><Timestamp dt:dt="int">0</Timestamp><DateUtc dt:dt="string">2016-01-21T21:16:19Z</DateUtc></StartTime><FrequencyChanges><FrequencyChange><Frequency dt:dt="r8">2337939</Frequency><Timestamp dt:dt="r8">3449495124231</Timestamp><Current dt:dt="r8">0</Current><DateUtc dt:dt="string">2016-01-21T21:16:19Z</DateUtc></FrequencyChange></FrequencyChanges></Clock>\n	Fractal Experiment-413-1	60.020	1.0.0.253	1	636860580	Standard	2.0.10.356	2.0.10.356	01-21-2016	1/21/2016 9:16:19 PM	15:16:19	2.0.10.252	39	2	39	1	39	600	54	a	a3	fractal	Experiment	Images\fractal153.png	Images\fractal156.png	Images\fractal157.png	Images\fractal157.png	Images\fractal153.png	Images\fractal154.png	Images\fractal154.png	Images\fractal155.png	Images\fractal155.png	Images\fractal155.png	Images\fractal155.png	Images\fractal156.png	d	1	2	2	4784	407638	s	d
Fractal Experiment	413	1	<?xml version="1.0"?>\n<Clock xmlns:dt="urn:schemas-microsoft-com:datatypes"><Description dt:dt="string">E-Prime Primary Realtime Clock</Description><StartTime><Timestamp dt:dt="int">0</Timestamp><DateUtc dt:dt="string">2016-01-21T21:16:19Z</DateUtc></StartTime><FrequencyChanges><FrequencyChange><Frequency dt:dt="r8">2337939</Frequency><Timestamp dt:dt="r8">3449495124231</Timestamp><Current dt:dt="r8">0</Current><DateUtc dt:dt="string">2016-01-21T21:16:19Z</DateUtc></FrequencyChange></FrequencyChanges></Clock>\n	Fractal Experiment-413-1	60.020	1.0.0.253	1	636860580	Standard	2.0.10.356	2.0.10.356	01-21-2016	1/21/2016 9:16:19 PM	15:16:19	2.0.10.252	40	2	40	1	40	675	41	a	a2	fractal	Experiment	Images\fractal96.png	Images\fractal99.png	Images\fractal99.png	Images\fractal99.png	Images\fractal96.png	Images\fractal96.png	Images\fractal96.png	Images\fractal97.png	Images\fractal97.png	Images\fractal98.png	Images\fractal98.png	Images\fractal99.png	s	1	2	2	2474	411910	d	s
Fractal Experiment	413	1	<?xml version="1.0"?>\n<Clock xmlns:dt="urn:schemas-microsoft-com:datatypes"><Description dt:dt="string">E-Prime Primary Realtime Clock</Description><StartTime><Timestamp dt:dt="int">0</Timestamp><DateUtc dt:dt="string">2016-01-21T21:16:19Z</DateUtc></StartTime><FrequencyChanges><FrequencyChange><Frequency dt:dt="r8">2337939</Frequency><Timestamp dt:dt="r8">3449495124231</Timestamp><Current dt:dt="r8">0</Current><DateUtc dt:dt="string">2016-01-21T21:16:19Z</DateUtc></FrequencyChange></FrequencyChanges></Clock>\n	Fractal Experiment-413-1	60.020	1.0.0.253	1	636860580	Standard	2.0.10.356	2.0.10.356	01-21-2016	1/21/2016 9:16:19 PM	15:16:19	2.0.10.252	41	1	41	1	41	534	88	s	s24	fractal	Experiment	Images\fractal349.png	Images\fractal489.png	Images\fractal490.png	Images\fractal491.png	Images\fractal350.png	Images\fractal351.png	Images\fractal351.png	Images\fractal394.png	Images\fractal395.png	Images\fractal396.png	Images\fractal396.png	Images\fractal488.png	ds	1	1	1	4287	417838	ds	dd
Fractal Experiment	413	1	<?xml version="1.0"?>\n<Clock xmlns:dt="urn:schemas-microsoft-com:datatypes"><Description dt:dt="string">E-Prime Primary Realtime Clock</Description><StartTime><Timestamp dt:dt="int">0</Timestamp><DateUtc dt:dt="string">2016-01-21T21:16:19Z</DateUtc></StartTime><FrequencyChanges><FrequencyChange><Frequency dt:dt="r8">2337939</Frequency><Timestamp dt:dt="r8">3449495124231</Timestamp><Current dt:dt="r8">0</Current><DateUtc dt:dt="string">2016-01-21T21:16:19Z</DateUtc></FrequencyChange></FrequencyChanges></Clock>\n	Fractal Experiment-413-1	60.020	1.0.0.253	1	636860580	Standard	2.0.10.356	2.0.10.356	01-21-2016	1/21/2016 9:16:19 PM	15:16:19	2.0.10.252	42	2	42	1	42	586	31	p	p2	fractal	Experiment	Images\fractal61.png	Images\fractal61.png	Images\fractal61.png	Images\fractal61.png	Images\fractal61.png	Images\fractal61.png	Images\fractal61.png	Images\fractal62.png	Images\fractal62.png	Images\fractal62.png	Images\fractal62.png	Images\fractal61.png	s	1	2	2	11842	431374	d	s
Fractal Experiment	413	1	<?xml version="1.0"?>\n<Clock xmlns:dt="urn:schemas-microsoft-com:datatypes"><Description dt:dt="string">E-Prime Primary Realtime Clock</Description><StartTime><Timestamp dt:dt="int">0</Timestamp><DateUtc dt:dt="string">2016-01-21T21:16:19Z</DateUtc></StartTime><FrequencyChanges><FrequencyChange><Frequency dt:dt="r8">2337939</Frequency><Timestamp dt:dt="r8">3449495124231</Timestamp><Current dt:dt="r8">0</Current><DateUtc dt:dt="string">2016-01-21T21:16:19Z</DateUtc></FrequencyChange></FrequencyChanges></Clock>\n	Fractal Experiment-413-1	60.020	1.0.0.253	1	636860580	Standard	2.0.10.356	2.0.10.356	01-21-2016	1/21/2016 9:16:19 PM	15:16:19	2.0.10.252	43	1	43	1	43	685	79	s	s15	fractal	Experiment	Images\fractal274.png	Images\fractal469.png	Images\fractal470.png	Images\fractal471.png	Images\fractal274.png	Images\fractal275.png	Images\fractal276.png	Images\fractal289.png	Images\fractal289.png	Images\fractal290.png	Images\fractal291.png	Images\fractal468.png	sd	1	1	1	9124	442302	sd	dd
Fractal Experiment	413	1	<?xml version="1.0"?>\n<Clock xmlns:dt="urn:schemas-microsoft-com:datatypes"><Description dt:dt="string">E-Prime Primary Realtime Clock</Description><StartTime><Timestamp dt:dt="int">0</Timestamp><DateUtc dt:dt="string">2016-01-21T21:16:19Z</DateUtc></StartTime><FrequencyChanges><FrequencyChange><Frequency dt:dt="r8">2337939</Frequency><Timestamp dt:dt="r8">3449495124231</Timestamp><Current dt:dt="r8">0</Current><DateUtc dt:dt="string">2016-01-21T21:16:19Z</DateUtc></FrequencyChange></FrequencyChanges></Clock>\n	Fractal Experiment-413-1	60.020	1.0.0.253	1	636860580	Standard	2.0.10.356	2.0.10.356	01-21-2016	1/21/2016 9:16:19 PM	15:16:19	2.0.10.252	44	1	44	1	44	540	34	a	a1	fractal	Experiment	Images\fractal68.png	Images\fractal70.png	Images\fractal71.png	Images\fractal71.png	Images\fractal68.png	Images\fractal68.png	Images\fractal68.png	Images\fractal69.png	Images\fractal69.png	Images\fractal69.png	Images\fractal69.png	Images\fractal70.png	s	1	1	1	1353	445310	s	d
Fractal Experiment	413	1	<?xml version="1.0"?>\n<Clock xmlns:dt="urn:schemas-microsoft-com:datatypes"><Description dt:dt="string">E-Prime Primary Realtime Clock</Description><StartTime><Timestamp dt:dt="int">0</Timestamp><DateUtc dt:dt="string">2016-01-21T21:16:19Z</DateUtc></StartTime><FrequencyChanges><FrequencyChange><Frequency dt:dt="r8">2337939</Frequency><Timestamp dt:dt="r8">3449495124231</Timestamp><Current dt:dt="r8">0</Current><DateUtc dt:dt="string">2016-01-21T21:16:19Z</DateUtc></FrequencyChange></FrequencyChanges></Clock>\n	Fractal Experiment-413-1	60.020	1.0.0.253	1	636860580	Standard	2.0.10.356	2.0.10.356	01-21-2016	1/21/2016 9:16:19 PM	15:16:19	2.0.10.252	45	2	45	1	45	626	47	a	a2	fractal	Experiment	Images\fractal120.png	Images\fractal123.png	Images\fractal123.png	Images\fractal123.png	Images\fractal120.png	Images\fractal120.png	Images\fractal120.png	Images\fractal121.png	Images\fractal121.png	Images\fractal122.png	Images\fractal122.png	Images\fractal123.png	s	1	2	2	2261	449317	d	s
Fractal Experiment	413	1	<?xml version="1.0"?>\n<Clock xmlns:dt="urn:schemas-microsoft-com:datatypes"><Description dt:dt="string">E-Prime Primary Realtime Clock</Description><StartTime><Timestamp dt:dt="int">0</Timestamp><DateUtc dt:dt="string">2016-01-21T21:16:19Z</DateUtc></StartTime><FrequencyChanges><FrequencyChange><Frequency dt:dt="r8">2337939</Frequency><Timestamp dt:dt="r8">3449495124231</Timestamp><Current dt:dt="r8">0</Current><DateUtc dt:dt="string">2016-01-21T21:16:19Z</DateUtc></FrequencyChange></FrequencyChanges></Clock>\n	Fractal Experiment-413-1	60.020	1.0.0.253	1	636860580	Standard	2.0.10.356	2.0.10.356	01-21-2016	1/21/2016 9:16:19 PM	15:16:19	2.0.10.252	46	2	46	1	46	801	73	s	s9	fractal	Experiment	Images\fractal256.png	Images\fractal307.png	Images\fractal308.png	Images\fractal309.png	Images\fractal256.png	Images\fractal257.png	Images\fractal258.png	Images\fractal232.png	Images\fractal232.png	Images\fractal233.png	Images\fractal233.png	Images\fractal307.png	sd	0	2	1	3063	454301	ss	sd
Fractal Experiment	413	1	<?xml version="1.0"?>\n<Clock xmlns:dt="urn:schemas-microsoft-com:datatypes"><Description dt:dt="string">E-Prime Primary Realtime Clock</Description><StartTime><Timestamp dt:dt="int">0</Timestamp><DateUtc dt:dt="string">2016-01-21T21:16:19Z</DateUtc></StartTime><FrequencyChanges><FrequencyChange><Frequency dt:dt="r8">2337939</Frequency><Timestamp dt:dt="r8">3449495124231</Timestamp><Current dt:dt="r8">0</Current><DateUtc dt:dt="string">2016-01-21T21:16:19Z</DateUtc></FrequencyChange></FrequencyChanges></Clock>\n	Fractal Experiment-413-1	60.020	1.0.0.253	1	636860580	Standard	2.0.10.356	2.0.10.356	01-21-2016	1/21/2016 9:16:19 PM	15:16:19	2.0.10.252	47	2	47	1	47	663	72	s	s8	fractal	Experiment	Images\fractal222.png	Images\fractal481.png	Images\fractal482.png	Images\fractal483.png	Images\fractal222.png	Images\fractal223.png	Images\fractal223.png	Images\fractal388.png	Images\fractal389.png	Images\fractal390.png	Images\fractal390.png	Images\fractal480.png	ss	0	2	1	2767	458853	ds	dd
Fractal Experiment	413	1	<?xml version="1.0"?>\n<Clock xmlns:dt="urn:schemas-microsoft-com:datatypes"><Description dt:dt="string">E-Prime Primary Realtime Clock</Description><StartTime><Timestamp dt:dt="int">0</Timestamp><DateUtc dt:dt="string">2016-01-21T21:16:19Z</DateUtc></StartTime><FrequencyChanges><FrequencyChange><Frequency dt:dt="r8">2337939</Frequency><Timestamp dt:dt="r8">3449495124231</Timestamp><Current dt:dt="r8">0</Current><DateUtc dt:dt="string">2016-01-21T21:16:19Z</DateUtc></FrequencyChange></FrequencyChanges></Clock>\n	Fractal Experiment-413-1	60.020	1.0.0.253	1	636860580	Standard	2.0.10.356	2.0.10.356	01-21-2016	1/21/2016 9:16:19 PM	15:16:19	2.0.10.252	48	1	48	1	48	870	83	s	s19	fractal	Experiment	Images\fractal334.png	Images\fractal244.png	Images\fractal245.png	Images\fractal245.png	Images\fractal335.png	Images\fractal336.png	Images\fractal336.png	Images\fractal292.png	Images\fractal292.png	Images\fractal293.png	Images\fractal294.png	Images\fractal244.png	ds	1	1	1	2490	463325	sd	ss
Fractal Experiment	413	1	<?xml version="1.0"?>\n<Clock xmlns:dt="urn:schemas-microsoft-com:datatypes"><Description dt:dt="string">E-Prime Primary Realtime Clock</Description><StartTime><Timestamp dt:dt="int">0</Timestamp><DateUtc dt:dt="string">2016-01-21T21:16:19Z</DateUtc></StartTime><FrequencyChanges><FrequencyChange><Frequency dt:dt="r8">2337939</Frequency><Timestamp dt:dt="r8">3449495124231</Timestamp><Current dt:dt="r8">0</Current><DateUtc dt:dt="string">2016-01-21T21:16:19Z</DateUtc></FrequencyChange></FrequencyChanges></Clock>\n	Fractal Experiment-413-1	60.020	1.0.0.253	1	636860580	Standard	2.0.10.356	2.0.10.356	01-21-2016	1/21/2016 9:16:19 PM	15:16:19	2.0.10.252	49	2	49	1	49	658	32	p	p2	fractal	Experiment	Images\fractal63.png	Images\fractal63.png	Images\fractal63.png	Images\fractal63.png	Images\fractal63.png	Images\fractal63.png	Images\fractal63.png	Images\fractal64.png	Images\fractal64.png	Images\fractal64.png	Images\fractal64.png	Images\fractal63.png	s	1	2	2	2118	498924	d	s
Fractal Experiment	413	1	<?xml version="1.0"?>\n<Clock xmlns:dt="urn:schemas-microsoft-com:datatypes"><Description dt:dt="string">E-Prime Primary Realtime Clock</Description><StartTime><Timestamp dt:dt="int">0</Timestamp><DateUtc dt:dt="string">2016-01-21T21:16:19Z</DateUtc></StartTime><FrequencyChanges><FrequencyChange><Frequency dt:dt="r8">2337939</Frequency><Timestamp dt:dt="r8">3449495124231</Timestamp><Current dt:dt="r8">0</Current><DateUtc dt:dt="string">2016-01-21T21:16:19Z</DateUtc></FrequencyChange></FrequencyChanges></Clock>\n	Fractal Experiment-413-1	60.020	1.0.0.253	1	636860580	Standard	2.0.10.356	2.0.10.356	01-21-2016	1/21/2016 9:16:19 PM	15:16:19	2.0.10.252	50	2	50	1	50	589	29	p	p2	fractal	Experiment	Images\fractal57.png	Images\fractal57.png	Images\fractal57.png	Images\fractal57.png	Images\fractal57.png	Images\fractal57.png	Images\fractal57.png	Images\fractal58.png	Images\fractal58.png	Images\fractal58.png	Images\fractal58.png	Images\fractal57.png	s	1	2	2	1622	502244	d	s
Fractal Experiment	413	1	<?xml version="1.0"?>\n<Clock xmlns:dt="urn:schemas-microsoft-com:datatypes"><Description dt:dt="string">E-Prime Primary Realtime Clock</Description><StartTime><Timestamp dt:dt="int">0</Timestamp><DateUtc dt:dt="string">2016-01-21T21:16:19Z</DateUtc></StartTime><FrequencyChanges><FrequencyChange><Frequency dt:dt="r8">2337939</Frequency><Timestamp dt:dt="r8">3449495124231</Timestamp><Current dt:dt="r8">0</Current><DateUtc dt:dt="string">2016-01-21T21:16:19Z</DateUtc></FrequencyChange></FrequencyChanges></Clock>\n	Fractal Experiment-413-1	60.020	1.0.0.253	1	636860580	Standard	2.0.10.356	2.0.10.356	01-21-2016	1/21/2016 9:16:19 PM	15:16:19	2.0.10.252	51	2	51	1	51	510	52	a	a3	fractal	Experiment	Images\fractal143.png	Images\fractal146.png	Images\fractal147.png	Images\fractal147.png	Images\fractal143.png	Images\fractal144.png	Images\fractal144.png	Images\fractal145.png	Images\fractal145.png	Images\fractal145.png	Images\fractal145.png	Images\fractal146.png	d	1	2	2	3662	507532	s	d
Fractal Experiment	413	1	<?xml version="1.0"?>\n<Clock xmlns:dt="urn:schemas-microsoft-com:datatypes"><Description dt:dt="string">E-Prime Primary Realtime Clock</Description><StartTime><Timestamp dt:dt="int">0</Timestamp><DateUtc dt:dt="string">2016-01-21T21:16:19Z</DateUtc></StartTime><FrequencyChanges><FrequencyChange><Frequency dt:dt="r8">2337939</Frequency><Timestamp dt:dt="r8">3449495124231</Timestamp><Current dt:dt="r8">0</Current><DateUtc dt:dt="string">2016-01-21T21:16:19Z</DateUtc></FrequencyChange></FrequencyChanges></Clock>\n	Fractal Experiment-413-1	60.020	1.0.0.253	1	636860580	Standard	2.0.10.356	2.0.10.356	01-21-2016	1/21/2016 9:16:19 PM	15:16:19	2.0.10.252	52	1	52	1	52	738	16	p	p1	fractal	Experiment	Images\fractal31.png	Images\fractal32.png	Images\fractal32.png	Images\fractal32.png	Images\fractal31.png	Images\fractal31.png	Images\fractal31.png	Images\fractal31.png	Images\fractal31.png	Images\fractal31.png	Images\fractal31.png	Images\fractal32.png	s	1	1	1	2211	511596	s	d
Fractal Experiment	413	1	<?xml version="1.0"?>\n<Clock xmlns:dt="urn:schemas-microsoft-com:datatypes"><Description dt:dt="string">E-Prime Primary Realtime Clock</Description><StartTime><Timestamp dt:dt="int">0</Timestamp><DateUtc dt:dt="string">2016-01-21T21:16:19Z</DateUtc></StartTime><FrequencyChanges><FrequencyChange><Frequency dt:dt="r8">2337939</Frequency><Timestamp dt:dt="r8">3449495124231</Timestamp><Current dt:dt="r8">0</Current><DateUtc dt:dt="string">2016-01-21T21:16:19Z</DateUtc></FrequencyChange></FrequencyChanges></Clock>\n	Fractal Experiment-413-1	60.020	1.0.0.253	1	636860580	Standard	2.0.10.356	2.0.10.356	01-21-2016	1/21/2016 9:16:19 PM	15:16:19	2.0.10.252	53	1	53	1	53	901	11	p	p1	fractal	Experiment	Images\fractal21.png	Images\fractal22.png	Images\fractal22.png	Images\fractal22.png	Images\fractal21.png	Images\fractal21.png	Images\fractal21.png	Images\fractal21.png	Images\fractal21.png	Images\fractal21.png	Images\fractal21.png	Images\fractal22.png	s	1	1	1	971	514588	s	d
Fractal Experiment	413	1	<?xml version="1.0"?>\n<Clock xmlns:dt="urn:schemas-microsoft-com:datatypes"><Description dt:dt="string">E-Prime Primary Realtime Clock</Description><StartTime><Timestamp dt:dt="int">0</Timestamp><DateUtc dt:dt="string">2016-01-21T21:16:19Z</DateUtc></StartTime><FrequencyChanges><FrequencyChange><Frequency dt:dt="r8">2337939</Frequency><Timestamp dt:dt="r8">3449495124231</Timestamp><Current dt:dt="r8">0</Current><DateUtc dt:dt="string">2016-01-21T21:16:19Z</DateUtc></FrequencyChange></FrequencyChanges></Clock>\n	Fractal Experiment-413-1	60.020	1.0.0.253	1	636860580	Standard	2.0.10.356	2.0.10.356	01-21-2016	1/21/2016 9:16:19 PM	15:16:19	2.0.10.252	54	1	54	1	54	709	39	a	a1	fractal	Experiment	Images\fractal88.png	Images\fractal90.png	Images\fractal91.png	Images\fractal91.png	Images\fractal88.png	Images\fractal88.png	Images\fractal88.png	Images\fractal89.png	Images\fractal89.png	Images\fractal89.png	Images\fractal89.png	Images\fractal90.png	s	1	1	1	2284	518700	s	d
Fractal Experiment	413	1	<?xml version="1.0"?>\n<Clock xmlns:dt="urn:schemas-microsoft-com:datatypes"><Description dt:dt="string">E-Prime Primary Realtime Clock</Description><StartTime><Timestamp dt:dt="int">0</Timestamp><DateUtc dt:dt="string">2016-01-21T21:16:19Z</DateUtc></StartTime><FrequencyChanges><FrequencyChange><Frequency dt:dt="r8">2337939</Frequency><Timestamp dt:dt="r8">3449495124231</Timestamp><Current dt:dt="r8">0</Current><DateUtc dt:dt="string">2016-01-21T21:16:19Z</DateUtc></FrequencyChange></FrequencyChanges></Clock>\n	Fractal Experiment-413-1	60.020	1.0.0.253	1	636860580	Standard	2.0.10.356	2.0.10.356	01-21-2016	1/21/2016 9:16:19 PM	15:16:19	2.0.10.252	55	2	55	1	55	671	71	s	s7	fractal	Experiment	Images\fractal220.png	Images\fractal465.png	Images\fractal466.png	Images\fractal467.png	Images\fractal220.png	Images\fractal221.png	Images\fractal221.png	Images\fractal283.png	Images\fractal283.png	Images\fractal284.png	Images\fractal285.png	Images\fractal464.png	ss	1	2	2	2860	523342	sd	dd
Fractal Experiment	413	1	<?xml version="1.0"?>\n<Clock xmlns:dt="urn:schemas-microsoft-com:datatypes"><Description dt:dt="string">E-Prime Primary Realtime Clock</Description><StartTime><Timestamp dt:dt="int">0</Timestamp><DateUtc dt:dt="string">2016-01-21T21:16:19Z</DateUtc></StartTime><FrequencyChanges><FrequencyChange><Frequency dt:dt="r8">2337939</Frequency><Timestamp dt:dt="r8">3449495124231</Timestamp><Current dt:dt="r8">0</Current><DateUtc dt:dt="string">2016-01-21T21:16:19Z</DateUtc></FrequencyChange></FrequencyChanges></Clock>\n	Fractal Experiment-413-1	60.020	1.0.0.253	1	636860580	Standard	2.0.10.356	2.0.10.356	01-21-2016	1/21/2016 9:16:19 PM	15:16:19	2.0.10.252	56	2	56	1	56	642	18	p	p2	fractal	Experiment	Images\fractal35.png	Images\fractal35.png	Images\fractal35.png	Images\fractal35.png	Images\fractal35.png	Images\fractal35.png	Images\fractal35.png	Images\fractal36.png	Images\fractal36.png	Images\fractal36.png	Images\fractal36.png	Images\fractal35.png	s	1	2	2	1803	526916	d	s
Fractal Experiment	413	1	<?xml version="1.0"?>\n<Clock xmlns:dt="urn:schemas-microsoft-com:datatypes"><Description dt:dt="string">E-Prime Primary Realtime Clock</Description><StartTime><Timestamp dt:dt="int">0</Timestamp><DateUtc dt:dt="string">2016-01-21T21:16:19Z</DateUtc></StartTime><FrequencyChanges><FrequencyChange><Frequency dt:dt="r8">2337939</Frequency><Timestamp dt:dt="r8">3449495124231</Timestamp><Current dt:dt="r8">0</Current><DateUtc dt:dt="string">2016-01-21T21:16:19Z</DateUtc></FrequencyChange></FrequencyChanges></Clock>\n	Fractal Experiment-413-1	60.020	1.0.0.253	1	636860580	Standard	2.0.10.356	2.0.10.356	01-21-2016	1/21/2016 9:16:19 PM	15:16:19	2.0.10.252	57	2	57	1	57	631	43	a	a2	fractal	Experiment	Images\fractal104.png	Images\fractal107.png	Images\fractal107.png	Images\fractal107.png	Images\fractal104.png	Images\fractal104.png	Images\fractal104.png	Images\fractal105.png	Images\fractal105.png	Images\fractal106.png	Images\fractal106.png	Images\fractal107.png	s	1	2	2	3966	532628	d	s
Fractal Experiment	413	1	<?xml version="1.0"?>\n<Clock xmlns:dt="urn:schemas-microsoft-com:datatypes"><Description dt:dt="string">E-Prime Primary Realtime Clock</Description><StartTime><Timestamp dt:dt="int">0</Timestamp><DateUtc dt:dt="string">2016-01-21T21:16:19Z</DateUtc></StartTime><FrequencyChanges><FrequencyChange><Frequency dt:dt="r8">2337939</Frequency><Timestamp dt:dt="r8">3449495124231</Timestamp><Current dt:dt="r8">0</Current><DateUtc dt:dt="string">2016-01-21T21:16:19Z</DateUtc></FrequencyChange></FrequencyChanges></Clock>\n	Fractal Experiment-413-1	60.020	1.0.0.253	1	636860580	Standard	2.0.10.356	2.0.10.356	01-21-2016	1/21/2016 9:16:19 PM	15:16:19	2.0.10.252	58	2	58	1	58	511	45	a	a2	fractal	Experiment	Images\fractal112.png	Images\fractal115.png	Images\fractal115.png	Images\fractal115.png	Images\fractal112.png	Images\fractal112.png	Images\fractal112.png	Images\fractal113.png	Images\fractal113.png	Images\fractal114.png	Images\fractal114.png	Images\fractal115.png	s	1	2	2	1704	535964	d	s
Fractal Experiment	413	1	<?xml version="1.0"?>\n<Clock xmlns:dt="urn:schemas-microsoft-com:datatypes"><Description dt:dt="string">E-Prime Primary Realtime Clock</Description><StartTime><Timestamp dt:dt="int">0</Timestamp><DateUtc dt:dt="string">2016-01-21T21:16:19Z</DateUtc></StartTime><FrequencyChanges><FrequencyChange><Frequency dt:dt="r8">2337939</Frequency><Timestamp dt:dt="r8">3449495124231</Timestamp><Current dt:dt="r8">0</Current><DateUtc dt:dt="string">2016-01-21T21:16:19Z</DateUtc></FrequencyChange></FrequencyChanges></Clock>\n	Fractal Experiment-413-1	60.020	1.0.0.253	1	636860580	Standard	2.0.10.356	2.0.10.356	01-21-2016	1/21/2016 9:16:19 PM	15:16:19	2.0.10.252	59	2	59	1	59	605	50	a	a3	fractal	Experiment	Images\fractal133.png	Images\fractal136.png	Images\fractal137.png	Images\fractal137.png	Images\fractal133.png	Images\fractal134.png	Images\fractal134.png	Images\fractal135.png	Images\fractal135.png	Images\fractal135.png	Images\fractal135.png	Images\fractal136.png	d	1	2	2	1952	539628	s	d
Fractal Experiment	413	1	<?xml version="1.0"?>\n<Clock xmlns:dt="urn:schemas-microsoft-com:datatypes"><Description dt:dt="string">E-Prime Primary Realtime Clock</Description><StartTime><Timestamp dt:dt="int">0</Timestamp><DateUtc dt:dt="string">2016-01-21T21:16:19Z</DateUtc></StartTime><FrequencyChanges><FrequencyChange><Frequency dt:dt="r8">2337939</Frequency><Timestamp dt:dt="r8">3449495124231</Timestamp><Current dt:dt="r8">0</Current><DateUtc dt:dt="string">2016-01-21T21:16:19Z</DateUtc></FrequencyChange></FrequencyChanges></Clock>\n	Fractal Experiment-413-1	60.020	1.0.0.253	1	636860580	Standard	2.0.10.356	2.0.10.356	01-21-2016	1/21/2016 9:16:19 PM	15:16:19	2.0.10.252	60	1	60	1	60	747	35	a	a1	fractal	Experiment	Images\fractal72.png	Images\fractal74.png	Images\fractal75.png	Images\fractal75.png	Images\fractal72.png	Images\fractal72.png	Images\fractal72.png	Images\fractal73.png	Images\fractal73.png	Images\fractal73.png	Images\fractal73.png	Images\fractal74.png	s	1	1	1	1065	542556	s	d
Fractal Experiment	413	1	<?xml version="1.0"?>\n<Clock xmlns:dt="urn:schemas-microsoft-com:datatypes"><Description dt:dt="string">E-Prime Primary Realtime Clock</Description><StartTime><Timestamp dt:dt="int">0</Timestamp><DateUtc dt:dt="string">2016-01-21T21:16:19Z</DateUtc></StartTime><FrequencyChanges><FrequencyChange><Frequency dt:dt="r8">2337939</Frequency><Timestamp dt:dt="r8">3449495124231</Timestamp><Current dt:dt="r8">0</Current><DateUtc dt:dt="string">2016-01-21T21:16:19Z</DateUtc></FrequencyChange></FrequencyChanges></Clock>\n	Fractal Experiment-413-1	60.020	1.0.0.253	1	636860580	Standard	2.0.10.356	2.0.10.356	01-21-2016	1/21/2016 9:16:19 PM	15:16:19	2.0.10.252	61	2	61	1	61	674	17	p	p2	fractal	Experiment	Images\fractal33.png	Images\fractal33.png	Images\fractal33.png	Images\fractal33.png	Images\fractal33.png	Images\fractal33.png	Images\fractal33.png	Images\fractal34.png	Images\fractal34.png	Images\fractal34.png	Images\fractal34.png	Images\fractal33.png	s	1	2	2	1791	546147	d	s
Fractal Experiment	413	1	<?xml version="1.0"?>\n<Clock xmlns:dt="urn:schemas-microsoft-com:datatypes"><Description dt:dt="string">E-Prime Primary Realtime Clock</Description><StartTime><Timestamp dt:dt="int">0</Timestamp><DateUtc dt:dt="string">2016-01-21T21:16:19Z</DateUtc></StartTime><FrequencyChanges><FrequencyChange><Frequency dt:dt="r8">2337939</Frequency><Timestamp dt:dt="r8">3449495124231</Timestamp><Current dt:dt="r8">0</Current><DateUtc dt:dt="string">2016-01-21T21:16:19Z</DateUtc></FrequencyChange></FrequencyChanges></Clock>\n	Fractal Experiment-413-1	60.020	1.0.0.253	1	636860580	Standard	2.0.10.356	2.0.10.356	01-21-2016	1/21/2016 9:16:19 PM	15:16:19	2.0.10.252	62	1	62	1	62	580	62	a	a4	fractal	Experiment	Images\fractal193.png	Images\fractal197.png	Images\fractal197.png	Images\fractal197.png	Images\fractal193.png	Images\fractal194.png	Images\fractal194.png	Images\fractal195.png	Images\fractal195.png	Images\fractal196.png	Images\fractal196.png	Images\fractal197.png	d	1	1	1	2492	550331	d	s
Fractal Experiment	413	1	<?xml version="1.0"?>\n<Clock xmlns:dt="urn:schemas-microsoft-com:datatypes"><Description dt:dt="string">E-Prime Primary Realtime Clock</Description><StartTime><Timestamp dt:dt="int">0</Timestamp><DateUtc dt:dt="string">2016-01-21T21:16:19Z</DateUtc></StartTime><FrequencyChanges><FrequencyChange><Frequency dt:dt="r8">2337939</Frequency><Timestamp dt:dt="r8">3449495124231</Timestamp><Current dt:dt="r8">0</Current><DateUtc dt:dt="string">2016-01-21T21:16:19Z</DateUtc></FrequencyChange></FrequencyChanges></Clock>\n	Fractal Experiment-413-1	60.020	1.0.0.253	1	636860580	Standard	2.0.10.356	2.0.10.356	01-21-2016	1/21/2016 9:16:19 PM	15:16:19	2.0.10.252	63	2	63	1	63	533	77	s	s13	fractal	Experiment	Images\fractal268.png	Images\fractal319.png	Images\fractal320.png	Images\fractal321.png	Images\fractal268.png	Images\fractal269.png	Images\fractal270.png	Images\fractal452.png	Images\fractal453.png	Images\fractal454.png	Images\fractal455.png	Images\fractal319.png	sd	0	2	1	1552	553539	dd	sd
Fractal Experiment	413	1	<?xml version="1.0"?>\n<Clock xmlns:dt="urn:schemas-microsoft-com:datatypes"><Description dt:dt="string">E-Prime Primary Realtime Clock</Description><StartTime><Timestamp dt:dt="int">0</Timestamp><DateUtc dt:dt="string">2016-01-21T21:16:19Z</DateUtc></StartTime><FrequencyChanges><FrequencyChange><Frequency dt:dt="r8">2337939</Frequency><Timestamp dt:dt="r8">3449495124231</Timestamp><Current dt:dt="r8">0</Current><DateUtc dt:dt="string">2016-01-21T21:16:19Z</DateUtc></FrequencyChange></FrequencyChanges></Clock>\n	Fractal Experiment-413-1	60.020	1.0.0.253	1	636860580	Standard	2.0.10.356	2.0.10.356	01-21-2016	1/21/2016 9:16:19 PM	15:16:19	2.0.10.252	64	1	64	1	64	851	70	s	s6	fractal	Experiment	Images\fractal218.png	Images\fractal365.png	Images\fractal366.png	Images\fractal366.png	Images\fractal218.png	Images\fractal219.png	Images\fractal219.png	Images\fractal432.png	Images\fractal433.png	Images\fractal434.png	Images\fractal435.png	Images\fractal364.png	ss	1	1	1	3789	559291	dd	ds
Fractal Experiment	413	1	<?xml version="1.0"?>\n<Clock xmlns:dt="urn:schemas-microsoft-com:datatypes"><Description dt:dt="string">E-Prime Primary Realtime Clock</Description><StartTime><Timestamp dt:dt="int">0</Timestamp><DateUtc dt:dt="string">2016-01-21T21:16:19Z</DateUtc></StartTime><FrequencyChanges><FrequencyChange><Frequency dt:dt="r8">2337939</Frequency><Timestamp dt:dt="r8">3449495124231</Timestamp><Current dt:dt="r8">0</Current><DateUtc dt:dt="string">2016-01-21T21:16:19Z</DateUtc></FrequencyChange></FrequencyChanges></Clock>\n	Fractal Experiment-413-1	60.020	1.0.0.253	1	636860580	Standard	2.0.10.356	2.0.10.356	01-21-2016	1/21/2016 9:16:19 PM	15:16:19	2.0.10.252	65	1	65	1	65	585	9	p	p1	fractal	Experiment	Images\fractal17.png	Images\fractal18.png	Images\fractal18.png	Images\fractal18.png	Images\fractal17.png	Images\fractal17.png	Images\fractal17.png	Images\fractal17.png	Images\fractal17.png	Images\fractal17.png	Images\fractal17.png	Images\fractal18.png	s	1	1	1	915	561899	s	d
Fractal Experiment	413	1	<?xml version="1.0"?>\n<Clock xmlns:dt="urn:schemas-microsoft-com:datatypes"><Description dt:dt="string">E-Prime Primary Realtime Clock</Description><StartTime><Timestamp dt:dt="int">0</Timestamp><DateUtc dt:dt="string">2016-01-21T21:16:19Z</DateUtc></StartTime><FrequencyChanges><FrequencyChange><Frequency dt:dt="r8">2337939</Frequency><Timestamp dt:dt="r8">3449495124231</Timestamp><Current dt:dt="r8">0</Current><DateUtc dt:dt="string">2016-01-21T21:16:19Z</DateUtc></FrequencyChange></FrequencyChanges></Clock>\n	Fractal Experiment-413-1	60.020	1.0.0.253	1	636860580	Standard	2.0.10.356	2.0.10.356	01-21-2016	1/21/2016 9:16:19 PM	15:16:19	2.0.10.252	66	2	66	1	66	877	82	s	s18	fractal	Experiment	Images\fractal331.png	Images\fractal359.png	Images\fractal360.png	Images\fractal360.png	Images\fractal332.png	Images\fractal333.png	Images\fractal333.png	Images\fractal242.png	Images\fractal242.png	Images\fractal243.png	Images\fractal243.png	Images\fractal358.png	ds	1	2	2	3135	567035	ss	ds
Fractal Experiment	413	1	<?xml version="1.0"?>\n<Clock xmlns:dt="urn:schemas-microsoft-com:datatypes"><Description dt:dt="string">E-Prime Primary Realtime Clock</Description><StartTime><Timestamp dt:dt="int">0</Timestamp><DateUtc dt:dt="string">2016-01-21T21:16:19Z</DateUtc></StartTime><FrequencyChanges><FrequencyChange><Frequency dt:dt="r8">2337939</Frequency><Timestamp dt:dt="r8">3449495124231</Timestamp><Current dt:dt="r8">0</Current><DateUtc dt:dt="string">2016-01-21T21:16:19Z</DateUtc></FrequencyChange></FrequencyChanges></Clock>\n	Fractal Experiment-413-1	60.020	1.0.0.253	1	636860580	Standard	2.0.10.356	2.0.10.356	01-21-2016	1/21/2016 9:16:19 PM	15:16:19	2.0.10.252	67	1	67	1	67	935	2	p	p1	fractal	Experiment	Images\fractal3.png	Images\fractal4.png	Images\fractal4.png	Images\fractal4.png	Images\fractal3.png	Images\fractal3.png	Images\fractal3.png	Images\fractal3.png	Images\fractal3.png	Images\fractal3.png	Images\fractal3.png	Images\fractal4.png	s	1	1	1	1498	570579	s	d
Fractal Experiment	413	1	<?xml version="1.0"?>\n<Clock xmlns:dt="urn:schemas-microsoft-com:datatypes"><Description dt:dt="string">E-Prime Primary Realtime Clock</Description><StartTime><Timestamp dt:dt="int">0</Timestamp><DateUtc dt:dt="string">2016-01-21T21:16:19Z</DateUtc></StartTime><FrequencyChanges><FrequencyChange><Frequency dt:dt="r8">2337939</Frequency><Timestamp dt:dt="r8">3449495124231</Timestamp><Current dt:dt="r8">0</Current><DateUtc dt:dt="string">2016-01-21T21:16:19Z</DateUtc></FrequencyChange></FrequencyChanges></Clock>\n	Fractal Experiment-413-1	60.020	1.0.0.253	1	636860580	Standard	2.0.10.356	2.0.10.356	01-21-2016	1/21/2016 9:16:19 PM	15:16:19	2.0.10.252	68	1	68	1	68	951	89	s	s25	fractal	Experiment	Images\fractal400.png	Images\fractal313.png	Images\fractal314.png	Images\fractal315.png	Images\fractal401.png	Images\fractal402.png	Images\fractal403.png	Images\fractal248.png	Images\fractal248.png	Images\fractal249.png	Images\fractal249.png	Images\fractal313.png	dd	1	1	1	3276	575923	ss	sd
Fractal Experiment	413	1	<?xml version="1.0"?>\n<Clock xmlns:dt="urn:schemas-microsoft-com:datatypes"><Description dt:dt="string">E-Prime Primary Realtime Clock</Description><StartTime><Timestamp dt:dt="int">0</Timestamp><DateUtc dt:dt="string">2016-01-21T21:16:19Z</DateUtc></StartTime><FrequencyChanges><FrequencyChange><Frequency dt:dt="r8">2337939</Frequency><Timestamp dt:dt="r8">3449495124231</Timestamp><Current dt:dt="r8">0</Current><DateUtc dt:dt="string">2016-01-21T21:16:19Z</DateUtc></FrequencyChange></FrequencyChanges></Clock>\n	Fractal Experiment-413-1	60.020	1.0.0.253	1	636860580	Standard	2.0.10.356	2.0.10.356	01-21-2016	1/21/2016 9:16:19 PM	15:16:19	2.0.10.252	69	1	69	1	69	518	84	s	s20	fractal	Experiment	Images\fractal337.png	Images\fractal246.png	Images\fractal247.png	Images\fractal247.png	Images\fractal338.png	Images\fractal339.png	Images\fractal339.png	Images\fractal382.png	Images\fractal383.png	Images\fractal384.png	Images\fractal384.png	Images\fractal246.png	ds	1	1	1	2169	579731	ds	ss
Fractal Experiment	413	1	<?xml version="1.0"?>\n<Clock xmlns:dt="urn:schemas-microsoft-com:datatypes"><Description dt:dt="string">E-Prime Primary Realtime Clock</Description><StartTime><Timestamp dt:dt="int">0</Timestamp><DateUtc dt:dt="string">2016-01-21T21:16:19Z</DateUtc></StartTime><FrequencyChanges><FrequencyChange><Frequency dt:dt="r8">2337939</Frequency><Timestamp dt:dt="r8">3449495124231</Timestamp><Current dt:dt="r8">0</Current><DateUtc dt:dt="string">2016-01-21T21:16:19Z</DateUtc></FrequencyChange></FrequencyChanges></Clock>\n	Fractal Experiment-413-1	60.020	1.0.0.253	1	636860580	Standard	2.0.10.356	2.0.10.356	01-21-2016	1/21/2016 9:16:19 PM	15:16:19	2.0.10.252	70	1	70	1	70	913	76	s	s12	fractal	Experiment	Images\fractal265.png	Images\fractal238.png	Images\fractal239.png	Images\fractal239.png	Images\fractal265.png	Images\fractal266.png	Images\fractal267.png	Images\fractal379.png	Images\fractal380.png	Images\fractal381.png	Images\fractal381.png	Images\fractal238.png	sd	0	1	2	2579	584339	ds	ss
Fractal Experiment	413	1	<?xml version="1.0"?>\n<Clock xmlns:dt="urn:schemas-microsoft-com:datatypes"><Description dt:dt="string">E-Prime Primary Realtime Clock</Description><StartTime><Timestamp dt:dt="int">0</Timestamp><DateUtc dt:dt="string">2016-01-21T21:16:19Z</DateUtc></StartTime><FrequencyChanges><FrequencyChange><Frequency dt:dt="r8">2337939</Frequency><Timestamp dt:dt="r8">3449495124231</Timestamp><Current dt:dt="r8">0</Current><DateUtc dt:dt="string">2016-01-21T21:16:19Z</DateUtc></FrequencyChange></FrequencyChanges></Clock>\n	Fractal Experiment-413-1	60.020	1.0.0.253	1	636860580	Standard	2.0.10.356	2.0.10.356	01-21-2016	1/21/2016 9:16:19 PM	15:16:19	2.0.10.252	71	1	71	1	71	949	61	a	a4	fractal	Experiment	Images\fractal188.png	Images\fractal192.png	Images\fractal192.png	Images\fractal192.png	Images\fractal188.png	Images\fractal189.png	Images\fractal189.png	Images\fractal190.png	Images\fractal190.png	Images\fractal191.png	Images\fractal191.png	Images\fractal192.png	d	1	1	1	3010	589419	d	s
Fractal Experiment	413	1	<?xml version="1.0"?>\n<Clock xmlns:dt="urn:schemas-microsoft-com:datatypes"><Description dt:dt="string">E-Prime Primary Realtime Clock</Description><StartTime><Timestamp dt:dt="int">0</Timestamp><DateUtc dt:dt="string">2016-01-21T21:16:19Z</DateUtc></StartTime><FrequencyChanges><FrequencyChange><Frequency dt:dt="r8">2337939</Frequency><Timestamp dt:dt="r8">3449495124231</Timestamp><Current dt:dt="r8">0</Current><DateUtc dt:dt="string">2016-01-21T21:16:19Z</DateUtc></FrequencyChange></FrequencyChanges></Clock>\n	Fractal Experiment-413-1	60.020	1.0.0.253	1	636860580	Standard	2.0.10.356	2.0.10.356	01-21-2016	1/21/2016 9:16:19 PM	15:16:19	2.0.10.252	72	2	72	1	72	683	95	s	s31	fractal	Experiment	Images\fractal424.png	Images\fractal477.png	Images\fractal478.png	Images\fractal479.png	Images\fractal425.png	Images\fractal426.png	Images\fractal427.png	Images\fractal301.png	Images\fractal301.png	Images\fractal302.png	Images\fractal303.png	Images\fractal476.png	dd	0	2	1	1634	592858	sd	dd
Fractal Experiment	413	1	<?xml version="1.0"?>\n<Clock xmlns:dt="urn:schemas-microsoft-com:datatypes"><Description dt:dt="string">E-Prime Primary Realtime Clock</Description><StartTime><Timestamp dt:dt="int">0</Timestamp><DateUtc dt:dt="string">2016-01-21T21:16:19Z</DateUtc></StartTime><FrequencyChanges><FrequencyChange><Frequency dt:dt="r8">2337939</Frequency><Timestamp dt:dt="r8">3449495124231</Timestamp><Current dt:dt="r8">0</Current><DateUtc dt:dt="string">2016-01-21T21:16:19Z</DateUtc></FrequencyChange></FrequencyChanges></Clock>\n	Fractal Experiment-413-1	60.020	1.0.0.253	1	636860580	Standard	2.0.10.356	2.0.10.356	01-21-2016	1/21/2016 9:16:19 PM	15:16:19	2.0.10.252	73	2	73	1	73	600	46	a	a2	fractal	Experiment	Images\fractal116.png	Images\fractal119.png	Images\fractal119.png	Images\fractal119.png	Images\fractal116.png	Images\fractal116.png	Images\fractal116.png	Images\fractal117.png	Images\fractal117.png	Images\fractal118.png	Images\fractal118.png	Images\fractal119.png	s	1	2	2	2025	627970	d	s
Fractal Experiment	413	1	<?xml version="1.0"?>\n<Clock xmlns:dt="urn:schemas-microsoft-com:datatypes"><Description dt:dt="string">E-Prime Primary Realtime Clock</Description><StartTime><Timestamp dt:dt="int">0</Timestamp><DateUtc dt:dt="string">2016-01-21T21:16:19Z</DateUtc></StartTime><FrequencyChanges><FrequencyChange><Frequency dt:dt="r8">2337939</Frequency><Timestamp dt:dt="r8">3449495124231</Timestamp><Current dt:dt="r8">0</Current><DateUtc dt:dt="string">2016-01-21T21:16:19Z</DateUtc></FrequencyChange></FrequencyChanges></Clock>\n	Fractal Experiment-413-1	60.020	1.0.0.253	1	636860580	Standard	2.0.10.356	2.0.10.356	01-21-2016	1/21/2016 9:16:19 PM	15:16:19	2.0.10.252	74	2	74	1	74	884	81	s	s17	fractal	Experiment	Images\fractal328.png	Images\fractal310.png	Images\fractal311.png	Images\fractal312.png	Images\fractal329.png	Images\fractal330.png	Images\fractal330.png	Images\fractal240.png	Images\fractal240.png	Images\fractal241.png	Images\fractal241.png	Images\fractal310.png	ds	1	2	2	3610	633570	ss	sd
Fractal Experiment	413	1	<?xml version="1.0"?>\n<Clock xmlns:dt="urn:schemas-microsoft-com:datatypes"><Description dt:dt="string">E-Prime Primary Realtime Clock</Description><StartTime><Timestamp dt:dt="int">0</Timestamp><DateUtc dt:dt="string">2016-01-21T21:16:19Z</DateUtc></StartTime><FrequencyChanges><FrequencyChange><Frequency dt:dt="r8">2337939</Frequency><Timestamp dt:dt="r8">3449495124231</Timestamp><Current dt:dt="r8">0</Current><DateUtc dt:dt="string">2016-01-21T21:16:19Z</DateUtc></FrequencyChange></FrequencyChanges></Clock>\n	Fractal Experiment-413-1	60.020	1.0.0.253	1	636860580	Standard	2.0.10.356	2.0.10.356	01-21-2016	1/21/2016 9:16:19 PM	15:16:19	2.0.10.252	75	1	75	1	75	808	33	a	a1	fractal	Experiment	Images\fractal64.png	Images\fractal66.png	Images\fractal67.png	Images\fractal67.png	Images\fractal64.png	Images\fractal64.png	Images\fractal64.png	Images\fractal65.png	Images\fractal65.png	Images\fractal65.png	Images\fractal65.png	Images\fractal66.png	s	1	1	1	1509	637034	s	d
Fractal Experiment	413	1	<?xml version="1.0"?>\n<Clock xmlns:dt="urn:schemas-microsoft-com:datatypes"><Description dt:dt="string">E-Prime Primary Realtime Clock</Description><StartTime><Timestamp dt:dt="int">0</Timestamp><DateUtc dt:dt="string">2016-01-21T21:16:19Z</DateUtc></StartTime><FrequencyChanges><FrequencyChange><Frequency dt:dt="r8">2337939</Frequency><Timestamp dt:dt="r8">3449495124231</Timestamp><Current dt:dt="r8">0</Current><DateUtc dt:dt="string">2016-01-21T21:16:19Z</DateUtc></FrequencyChange></FrequencyChanges></Clock>\n	Fractal Experiment-413-1	60.020	1.0.0.253	1	636860580	Standard	2.0.10.356	2.0.10.356	01-21-2016	1/21/2016 9:16:19 PM	15:16:19	2.0.10.252	76	1	76	1	76	547	5	p	p1	fractal	Experiment	Images\fractal9.png	Images\fractal10.png	Images\fractal10.png	Images\fractal10.png	Images\fractal9.png	Images\fractal9.png	Images\fractal9.png	Images\fractal9.png	Images\fractal9.png	Images\fractal9.png	Images\fractal9.png	Images\fractal10.png	s	1	1	1	1166	639857	s	d
Fractal Experiment	413	1	<?xml version="1.0"?>\n<Clock xmlns:dt="urn:schemas-microsoft-com:datatypes"><Description dt:dt="string">E-Prime Primary Realtime Clock</Description><StartTime><Timestamp dt:dt="int">0</Timestamp><DateUtc dt:dt="string">2016-01-21T21:16:19Z</DateUtc></StartTime><FrequencyChanges><FrequencyChange><Frequency dt:dt="r8">2337939</Frequency><Timestamp dt:dt="r8">3449495124231</Timestamp><Current dt:dt="r8">0</Current><DateUtc dt:dt="string">2016-01-21T21:16:19Z</DateUtc></FrequencyChange></FrequencyChanges></Clock>\n	Fractal Experiment-413-1	60.020	1.0.0.253	1	636860580	Standard	2.0.10.356	2.0.10.356	01-21-2016	1/21/2016 9:16:19 PM	15:16:19	2.0.10.252	77	1	77	1	77	663	64	a	a4	fractal	Experiment	Images\fractal203.png	Images\fractal207.png	Images\fractal207.png	Images\fractal207.png	Images\fractal203.png	Images\fractal204.png	Images\fractal204.png	Images\fractal205.png	Images\fractal205.png	Images\fractal206.png	Images\fractal206.png	Images\fractal207.png	d	1	1	1	3217	644857	d	s
Fractal Experiment	413	1	<?xml version="1.0"?>\n<Clock xmlns:dt="urn:schemas-microsoft-com:datatypes"><Description dt:dt="string">E-Prime Primary Realtime Clock</Description><StartTime><Timestamp dt:dt="int">0</Timestamp><DateUtc dt:dt="string">2016-01-21T21:16:19Z</DateUtc></StartTime><FrequencyChanges><FrequencyChange><Frequency dt:dt="r8">2337939</Frequency><Timestamp dt:dt="r8">3449495124231</Timestamp><Current dt:dt="r8">0</Current><DateUtc dt:dt="string">2016-01-21T21:16:19Z</DateUtc></FrequencyChange></FrequencyChanges></Clock>\n	Fractal Experiment-413-1	60.020	1.0.0.253	1	636860580	Standard	2.0.10.356	2.0.10.356	01-21-2016	1/21/2016 9:16:19 PM	15:16:19	2.0.10.252	78	1	78	1	78	683	66	s	s2	fractal	Experiment	Images\fractal210.png	Images\fractal353.png	Images\fractal354.png	Images\fractal354.png	Images\fractal210.png	Images\fractal211.png	Images\fractal211.png	Images\fractal226.png	Images\fractal226.png	Images\fractal227.png	Images\fractal227.png	Images\fractal352.png	ss	1	1	1	2618	649273	ss	ds
Fractal Experiment	413	1	<?xml version="1.0"?>\n<Clock xmlns:dt="urn:schemas-microsoft-com:datatypes"><Description dt:dt="string">E-Prime Primary Realtime Clock</Description><StartTime><Timestamp dt:dt="int">0</Timestamp><DateUtc dt:dt="string">2016-01-21T21:16:19Z</DateUtc></StartTime><FrequencyChanges><FrequencyChange><Frequency dt:dt="r8">2337939</Frequency><Timestamp dt:dt="r8">3449495124231</Timestamp><Current dt:dt="r8">0</Current><DateUtc dt:dt="string">2016-01-21T21:16:19Z</DateUtc></FrequencyChange></FrequencyChanges></Clock>\n	Fractal Experiment-413-1	60.020	1.0.0.253	1	636860580	Standard	2.0.10.356	2.0.10.356	01-21-2016	1/21/2016 9:16:19 PM	15:16:19	2.0.10.252	79	2	79	1	79	687	20	p	p2	fractal	Experiment	Images\fractal39.png	Images\fractal39.png	Images\fractal39.png	Images\fractal39.png	Images\fractal39.png	Images\fractal39.png	Images\fractal39.png	Images\fractal40.png	Images\fractal40.png	Images\fractal40.png	Images\fractal40.png	Images\fractal39.png	s	1	2	2	1083	652153	d	s
Fractal Experiment	413	1	<?xml version="1.0"?>\n<Clock xmlns:dt="urn:schemas-microsoft-com:datatypes"><Description dt:dt="string">E-Prime Primary Realtime Clock</Description><StartTime><Timestamp dt:dt="int">0</Timestamp><DateUtc dt:dt="string">2016-01-21T21:16:19Z</DateUtc></StartTime><FrequencyChanges><FrequencyChange><Frequency dt:dt="r8">2337939</Frequency><Timestamp dt:dt="r8">3449495124231</Timestamp><Current dt:dt="r8">0</Current><DateUtc dt:dt="string">2016-01-21T21:16:19Z</DateUtc></FrequencyChange></FrequencyChanges></Clock>\n	Fractal Experiment-413-1	60.020	1.0.0.253	1	636860580	Standard	2.0.10.356	2.0.10.356	01-21-2016	1/21/2016 9:16:19 PM	15:16:19	2.0.10.252	80	1	80	1	80	904	36	a	a1	fractal	Experiment	Images\fractal76.png	Images\fractal78.png	Images\fractal79.png	Images\fractal79.png	Images\fractal76.png	Images\fractal76.png	Images\fractal76.png	Images\fractal77.png	Images\fractal77.png	Images\fractal77.png	Images\fractal77.png	Images\fractal78.png	s	1	1	1	1608	655777	s	d
Fractal Experiment	413	1	<?xml version="1.0"?>\n<Clock xmlns:dt="urn:schemas-microsoft-com:datatypes"><Description dt:dt="string">E-Prime Primary Realtime Clock</Description><StartTime><Timestamp dt:dt="int">0</Timestamp><DateUtc dt:dt="string">2016-01-21T21:16:19Z</DateUtc></StartTime><FrequencyChanges><FrequencyChange><Frequency dt:dt="r8">2337939</Frequency><Timestamp dt:dt="r8">3449495124231</Timestamp><Current dt:dt="r8">0</Current><DateUtc dt:dt="string">2016-01-21T21:16:19Z</DateUtc></FrequencyChange></FrequencyChanges></Clock>\n	Fractal Experiment-413-1	60.020	1.0.0.253	1	636860580	Standard	2.0.10.356	2.0.10.356	01-21-2016	1/21/2016 9:16:19 PM	15:16:19	2.0.10.252	81	1	81	1	81	515	14	p	p1	fractal	Experiment	Images\fractal27.png	Images\fractal28.png	Images\fractal28.png	Images\fractal28.png	Images\fractal27.png	Images\fractal27.png	Images\fractal27.png	Images\fractal27.png	Images\fractal27.png	Images\fractal27.png	Images\fractal27.png	Images\fractal28.png	s	1	1	1	904	658305	s	d
Fractal Experiment	413	1	<?xml version="1.0"?>\n<Clock xmlns:dt="urn:schemas-microsoft-com:datatypes"><Description dt:dt="string">E-Prime Primary Realtime Clock</Description><StartTime><Timestamp dt:dt="int">0</Timestamp><DateUtc dt:dt="string">2016-01-21T21:16:19Z</DateUtc></StartTime><FrequencyChanges><FrequencyChange><Frequency dt:dt="r8">2337939</Frequency><Timestamp dt:dt="r8">3449495124231</Timestamp><Current dt:dt="r8">0</Current><DateUtc dt:dt="string">2016-01-21T21:16:19Z</DateUtc></FrequencyChange></FrequencyChanges></Clock>\n	Fractal Experiment-413-1	60.020	1.0.0.253	1	636860580	Standard	2.0.10.356	2.0.10.356	01-21-2016	1/21/2016 9:16:19 PM	15:16:19	2.0.10.252	82	1	82	1	82	645	3	p	p1	fractal	Experiment	Images\fractal5.png	Images\fractal6.png	Images\fractal6.png	Images\fractal6.png	Images\fractal5.png	Images\fractal5.png	Images\fractal5.png	Images\fractal5.png	Images\fractal5.png	Images\fractal5.png	Images\fractal5.png	Images\fractal6.png	s	1	1	1	1174	661241	s	d
Fractal Experiment	413	1	<?xml version="1.0"?>\n<Clock xmlns:dt="urn:schemas-microsoft-com:datatypes"><Description dt:dt="string">E-Prime Primary Realtime Clock</Description><StartTime><Timestamp dt:dt="int">0</Timestamp><DateUtc dt:dt="string">2016-01-21T21:16:19Z</DateUtc></StartTime><FrequencyChanges><FrequencyChange><Frequency dt:dt="r8">2337939</Frequency><Timestamp dt:dt="r8">3449495124231</Timestamp><Current dt:dt="r8">0</Current><DateUtc dt:dt="string">2016-01-21T21:16:19Z</DateUtc></FrequencyChange></FrequencyChanges></Clock>\n	Fractal Experiment-413-1	60.020	1.0.0.253	1	636860580	Standard	2.0.10.356	2.0.10.356	01-21-2016	1/21/2016 9:16:19 PM	15:16:19	2.0.10.252	83	1	83	1	83	858	80	s	s16	fractal	Experiment	Images\fractal277.png	Images\fractal485.png	Images\fractal486.png	Images\fractal487.png	Images\fractal277.png	Images\fractal278.png	Images\fractal279.png	Images\fractal391.png	Images\fractal392.png	Images\fractal393.png	Images\fractal393.png	Images\fractal484.png	sd	1	1	1	5769	668985	ds	dd
Fractal Experiment	413	1	<?xml version="1.0"?>\n<Clock xmlns:dt="urn:schemas-microsoft-com:datatypes"><Description dt:dt="string">E-Prime Primary Realtime Clock</Description><StartTime><Timestamp dt:dt="int">0</Timestamp><DateUtc dt:dt="string">2016-01-21T21:16:19Z</DateUtc></StartTime><FrequencyChanges><FrequencyChange><Frequency dt:dt="r8">2337939</Frequency><Timestamp dt:dt="r8">3449495124231</Timestamp><Current dt:dt="r8">0</Current><DateUtc dt:dt="string">2016-01-21T21:16:19Z</DateUtc></FrequencyChange></FrequencyChanges></Clock>\n	Fractal Experiment-413-1	60.020	1.0.0.253	1	636860580	Standard	2.0.10.356	2.0.10.356	01-21-2016	1/21/2016 9:16:19 PM	15:16:19	2.0.10.252	84	2	84	1	84	674	44	a	a2	fractal	Experiment	Images\fractal108.png	Images\fractal111.png	Images\fractal111.png	Images\fractal111.png	Images\fractal108.png	Images\fractal108.png	Images\fractal108.png	Images\fractal109.png	Images\fractal109.png	Images\fractal110.png	Images\fractal110.png	Images\fractal111.png	s	1	2	2	1341	672121	d	s
Fractal Experiment	413	1	<?xml version="1.0"?>\n<Clock xmlns:dt="urn:schemas-microsoft-com:datatypes"><Description dt:dt="string">E-Prime Primary Realtime Clock</Description><StartTime><Timestamp dt:dt="int">0</Timestamp><DateUtc dt:dt="string">2016-01-21T21:16:19Z</DateUtc></StartTime><FrequencyChanges><FrequencyChange><Frequency dt:dt="r8">2337939</Frequency><Timestamp dt:dt="r8">3449495124231</Timestamp><Current dt:dt="r8">0</Current><DateUtc dt:dt="string">2016-01-21T21:16:19Z</DateUtc></FrequencyChange></FrequencyChanges></Clock>\n	Fractal Experiment-413-1	60.020	1.0.0.253	1	636860580	Standard	2.0.10.356	2.0.10.356	01-21-2016	1/21/2016 9:16:19 PM	15:16:19	2.0.10.252	85	1	85	1	85	990	90	s	s26	fractal	Experiment	Images\fractal404.png	Images\fractal362.png	Images\fractal363.png	Images\fractal363.png	Images\fractal405.png	Images\fractal406.png	Images\fractal407.png	Images\fractal250.png	Images\fractal250.png	Images\fractal251.png	Images\fractal251.png	Images\fractal361.png	dd	1	1	1	2429	676641	ss	ds
Fractal Experiment	413	1	<?xml version="1.0"?>\n<Clock xmlns:dt="urn:schemas-microsoft-com:datatypes"><Description dt:dt="string">E-Prime Primary Realtime Clock</Description><StartTime><Timestamp dt:dt="int">0</Timestamp><DateUtc dt:dt="string">2016-01-21T21:16:19Z</DateUtc></StartTime><FrequencyChanges><FrequencyChange><Frequency dt:dt="r8">2337939</Frequency><Timestamp dt:dt="r8">3449495124231</Timestamp><Current dt:dt="r8">0</Current><DateUtc dt:dt="string">2016-01-21T21:16:19Z</DateUtc></FrequencyChange></FrequencyChanges></Clock>\n	Fractal Experiment-413-1	60.020	1.0.0.253	1	636860580	Standard	2.0.10.356	2.0.10.356	01-21-2016	1/21/2016 9:16:19 PM	15:16:19	2.0.10.252	86	2	86	1	86	652	86	s	s22	fractal	Experiment	Images\fractal343.png	Images\fractal371.png	Images\fractal372.png	Images\fractal372.png	Images\fractal344.png	Images\fractal345.png	Images\fractal345.png	Images\fractal440.png	Images\fractal441.png	Images\fractal442.png	Images\fractal443.png	Images\fractal370.png	ds	1	2	2	3678	682089	dd	ds
Fractal Experiment	413	1	<?xml version="1.0"?>\n<Clock xmlns:dt="urn:schemas-microsoft-com:datatypes"><Description dt:dt="string">E-Prime Primary Realtime Clock</Description><StartTime><Timestamp dt:dt="int">0</Timestamp><DateUtc dt:dt="string">2016-01-21T21:16:19Z</DateUtc></StartTime><FrequencyChanges><FrequencyChange><Frequency dt:dt="r8">2337939</Frequency><Timestamp dt:dt="r8">3449495124231</Timestamp><Current dt:dt="r8">0</Current><DateUtc dt:dt="string">2016-01-21T21:16:19Z</DateUtc></FrequencyChange></FrequencyChanges></Clock>\n	Fractal Experiment-413-1	60.020	1.0.0.253	1	636860580	Standard	2.0.10.356	2.0.10.356	01-21-2016	1/21/2016 9:16:19 PM	15:16:19	2.0.10.252	87	2	87	1	87	899	30	p	p2	fractal	Experiment	Images\fractal59.png	Images\fractal59.png	Images\fractal59.png	Images\fractal59.png	Images\fractal59.png	Images\fractal59.png	Images\fractal59.png	Images\fractal60.png	Images\fractal60.png	Images\fractal60.png	Images\fractal60.png	Images\fractal59.png	s	1	2	2	1260	685369	d	s
Fractal Experiment	413	1	<?xml version="1.0"?>\n<Clock xmlns:dt="urn:schemas-microsoft-com:datatypes"><Description dt:dt="string">E-Prime Primary Realtime Clock</Description><StartTime><Timestamp dt:dt="int">0</Timestamp><DateUtc dt:dt="string">2016-01-21T21:16:19Z</DateUtc></StartTime><FrequencyChanges><FrequencyChange><Frequency dt:dt="r8">2337939</Frequency><Timestamp dt:dt="r8">3449495124231</Timestamp><Current dt:dt="r8">0</Current><DateUtc dt:dt="string">2016-01-21T21:16:19Z</DateUtc></FrequencyChange></FrequencyChanges></Clock>\n	Fractal Experiment-413-1	60.020	1.0.0.253	1	636860580	Standard	2.0.10.356	2.0.10.356	01-21-2016	1/21/2016 9:16:19 PM	15:16:19	2.0.10.252	88	2	88	1	88	721	24	p	p2	fractal	Experiment	Images\fractal47.png	Images\fractal47.png	Images\fractal47.png	Images\fractal47.png	Images\fractal47.png	Images\fractal47.png	Images\fractal47.png	Images\fractal48.png	Images\fractal48.png	Images\fractal48.png	Images\fractal48.png	Images\fractal47.png	s	1	2	2	952	688160	d	s
Fractal Experiment	413	1	<?xml version="1.0"?>\n<Clock xmlns:dt="urn:schemas-microsoft-com:datatypes"><Description dt:dt="string">E-Prime Primary Realtime Clock</Description><StartTime><Timestamp dt:dt="int">0</Timestamp><DateUtc dt:dt="string">2016-01-21T21:16:19Z</DateUtc></StartTime><FrequencyChanges><FrequencyChange><Frequency dt:dt="r8">2337939</Frequency><Timestamp dt:dt="r8">3449495124231</Timestamp><Current dt:dt="r8">0</Current><DateUtc dt:dt="string">2016-01-21T21:16:19Z</DateUtc></FrequencyChange></FrequencyChanges></Clock>\n	Fractal Experiment-413-1	60.020	1.0.0.253	1	636860580	Standard	2.0.10.356	2.0.10.356	01-21-2016	1/21/2016 9:16:19 PM	15:16:19	2.0.10.252	89	1	89	1	89	907	58	a	a4	fractal	Experiment	Images\fractal173.png	Images\fractal177.png	Images\fractal177.png	Images\fractal177.png	Images\fractal173.png	Images\fractal174.png	Images\fractal174.png	Images\fractal175.png	Images\fractal175.png	Images\fractal176.png	Images\fractal176.png	Images\fractal177.png	d	1	1	1	2714	692904	d	s
Fractal Experiment	413	1	<?xml version="1.0"?>\n<Clock xmlns:dt="urn:schemas-microsoft-com:datatypes"><Description dt:dt="string">E-Prime Primary Realtime Clock</Description><StartTime><Timestamp dt:dt="int">0</Timestamp><DateUtc dt:dt="string">2016-01-21T21:16:19Z</DateUtc></StartTime><FrequencyChanges><FrequencyChange><Frequency dt:dt="r8">2337939</Frequency><Timestamp dt:dt="r8">3449495124231</Timestamp><Current dt:dt="r8">0</Current><DateUtc dt:dt="string">2016-01-21T21:16:19Z</DateUtc></FrequencyChange></FrequencyChanges></Clock>\n	Fractal Experiment-413-1	60.020	1.0.0.253	1	636860580	Standard	2.0.10.356	2.0.10.356	01-21-2016	1/21/2016 9:16:19 PM	15:16:19	2.0.10.252	90	2	90	1	90	622	19	p	p2	fractal	Experiment	Images\fractal37.png	Images\fractal37.png	Images\fractal37.png	Images\fractal37.png	Images\fractal37.png	Images\fractal37.png	Images\fractal37.png	Images\fractal38.png	Images\fractal38.png	Images\fractal38.png	Images\fractal38.png	Images\fractal37.png	s	1	2	2	1313	695952	d	s
Fractal Experiment	413	1	<?xml version="1.0"?>\n<Clock xmlns:dt="urn:schemas-microsoft-com:datatypes"><Description dt:dt="string">E-Prime Primary Realtime Clock</Description><StartTime><Timestamp dt:dt="int">0</Timestamp><DateUtc dt:dt="string">2016-01-21T21:16:19Z</DateUtc></StartTime><FrequencyChanges><FrequencyChange><Frequency dt:dt="r8">2337939</Frequency><Timestamp dt:dt="r8">3449495124231</Timestamp><Current dt:dt="r8">0</Current><DateUtc dt:dt="string">2016-01-21T21:16:19Z</DateUtc></FrequencyChange></FrequencyChanges></Clock>\n	Fractal Experiment-413-1	60.020	1.0.0.253	1	636860580	Standard	2.0.10.356	2.0.10.356	01-21-2016	1/21/2016 9:16:19 PM	15:16:19	2.0.10.252	91	2	91	1	91	813	67	s	s3	fractal	Experiment	Images\fractal212.png	Images\fractal228.png	Images\fractal229.png	Images\fractal229.png	Images\fractal212.png	Images\fractal213.png	Images\fractal213.png	Images\fractal280.png	Images\fractal280.png	Images\fractal281.png	Images\fractal282.png	Images\fractal228.png	ss	1	2	2	1425	699312	sd	ss
Fractal Experiment	413	1	<?xml version="1.0"?>\n<Clock xmlns:dt="urn:schemas-microsoft-com:datatypes"><Description dt:dt="string">E-Prime Primary Realtime Clock</Description><StartTime><Timestamp dt:dt="int">0</Timestamp><DateUtc dt:dt="string">2016-01-21T21:16:19Z</DateUtc></StartTime><FrequencyChanges><FrequencyChange><Frequency dt:dt="r8">2337939</Frequency><Timestamp dt:dt="r8">3449495124231</Timestamp><Current dt:dt="r8">0</Current><DateUtc dt:dt="string">2016-01-21T21:16:19Z</DateUtc></FrequencyChange></FrequencyChanges></Clock>\n	Fractal Experiment-413-1	60.020	1.0.0.253	1	636860580	Standard	2.0.10.356	2.0.10.356	01-21-2016	1/21/2016 9:16:19 PM	15:16:19	2.0.10.252	92	2	92	1	92	516	56	a	a3	fractal	Experiment	Images\fractal163.png	Images\fractal166.png	Images\fractal167.png	Images\fractal167.png	Images\fractal163.png	Images\fractal164.png	Images\fractal164.png	Images\fractal165.png	Images\fractal165.png	Images\fractal165.png	Images\fractal165.png	Images\fractal166.png	d	0	2	1	1544	702480	s	d
Fractal Experiment	413	1	<?xml version="1.0"?>\n<Clock xmlns:dt="urn:schemas-microsoft-com:datatypes"><Description dt:dt="string">E-Prime Primary Realtime Clock</Description><StartTime><Timestamp dt:dt="int">0</Timestamp><DateUtc dt:dt="string">2016-01-21T21:16:19Z</DateUtc></StartTime><FrequencyChanges><FrequencyChange><Frequency dt:dt="r8">2337939</Frequency><Timestamp dt:dt="r8">3449495124231</Timestamp><Current dt:dt="r8">0</Current><DateUtc dt:dt="string">2016-01-21T21:16:19Z</DateUtc></FrequencyChange></FrequencyChanges></Clock>\n	Fractal Experiment-413-1	60.020	1.0.0.253	1	636860580	Standard	2.0.10.356	2.0.10.356	01-21-2016	1/21/2016 9:16:19 PM	15:16:19	2.0.10.252	93	2	93	1	93	660	74	s	s10	fractal	Experiment	Images\fractal259.png	Images\fractal356.png	Images\fractal357.png	Images\fractal357.png	Images\fractal259.png	Images\fractal260.png	Images\fractal261.png	Images\fractal234.png	Images\fractal234.png	Images\fractal235.png	Images\fractal235.png	Images\fractal355.png	sd	0	2	1	1796	706064	ss	ds
Fractal Experiment	413	1	<?xml version="1.0"?>\n<Clock xmlns:dt="urn:schemas-microsoft-com:datatypes"><Description dt:dt="string">E-Prime Primary Realtime Clock</Description><StartTime><Timestamp dt:dt="int">0</Timestamp><DateUtc dt:dt="string">2016-01-21T21:16:19Z</DateUtc></StartTime><FrequencyChanges><FrequencyChange><Frequency dt:dt="r8">2337939</Frequency><Timestamp dt:dt="r8">3449495124231</Timestamp><Current dt:dt="r8">0</Current><DateUtc dt:dt="string">2016-01-21T21:16:19Z</DateUtc></FrequencyChange></FrequencyChanges></Clock>\n	Fractal Experiment-413-1	60.020	1.0.0.253	1	636860580	Standard	2.0.10.356	2.0.10.356	01-21-2016	1/21/2016 9:16:19 PM	15:16:19	2.0.10.252	94	1	94	1	94	502	7	p	p1	fractal	Experiment	Images\fractal13.png	Images\fractal14.png	Images\fractal14.png	Images\fractal14.png	Images\fractal13.png	Images\fractal13.png	Images\fractal13.png	Images\fractal13.png	Images\fractal13.png	Images\fractal13.png	Images\fractal13.png	Images\fractal14.png	s	1	1	1	1052	708736	s	d
Fractal Experiment	413	1	<?xml version="1.0"?>\n<Clock xmlns:dt="urn:schemas-microsoft-com:datatypes"><Description dt:dt="string">E-Prime Primary Realtime Clock</Description><StartTime><Timestamp dt:dt="int">0</Timestamp><DateUtc dt:dt="string">2016-01-21T21:16:19Z</DateUtc></StartTime><FrequencyChanges><FrequencyChange><Frequency dt:dt="r8">2337939</Frequency><Timestamp dt:dt="r8">3449495124231</Timestamp><Current dt:dt="r8">0</Current><DateUtc dt:dt="string">2016-01-21T21:16:19Z</DateUtc></FrequencyChange></FrequencyChanges></Clock>\n	Fractal Experiment-413-1	60.020	1.0.0.253	1	636860580	Standard	2.0.10.356	2.0.10.356	01-21-2016	1/21/2016 9:16:19 PM	15:16:19	2.0.10.252	95	2	95	1	95	689	51	a	a3	fractal	Experiment	Images\fractal138.png	Images\fractal141.png	Images\fractal142.png	Images\fractal142.png	Images\fractal138.png	Images\fractal139.png	Images\fractal139.png	Images\fractal140.png	Images\fractal140.png	Images\fractal140.png	Images\fractal140.png	Images\fractal141.png	d	0	2	1	1562	712096	s	d
Fractal Experiment	413	1	<?xml version="1.0"?>\n<Clock xmlns:dt="urn:schemas-microsoft-com:datatypes"><Description dt:dt="string">E-Prime Primary Realtime Clock</Description><StartTime><Timestamp dt:dt="int">0</Timestamp><DateUtc dt:dt="string">2016-01-21T21:16:19Z</DateUtc></StartTime><FrequencyChanges><FrequencyChange><Frequency dt:dt="r8">2337939</Frequency><Timestamp dt:dt="r8">3449495124231</Timestamp><Current dt:dt="r8">0</Current><DateUtc dt:dt="string">2016-01-21T21:16:19Z</DateUtc></FrequencyChange></FrequencyChanges></Clock>\n	Fractal Experiment-413-1	60.020	1.0.0.253	1	636860580	Standard	2.0.10.356	2.0.10.356	01-21-2016	1/21/2016 9:16:19 PM	15:16:19	2.0.10.252	96	1	96	1	96	985	94	s	s30	fractal	Experiment	Images\fractal420.png	Images\fractal374.png	Images\fractal375.png	Images\fractal375.png	Images\fractal421.png	Images\fractal422.png	Images\fractal423.png	Images\fractal444.png	Images\fractal445.png	Images\fractal446.png	Images\fractal447.png	Images\fractal373.png	dd	0	1	2	1770	715968	dd	ds
Fractal Experiment	414	1	<?xml version="1.0"?>\n<Clock xmlns:dt="urn:schemas-microsoft-com:datatypes"><Description dt:dt="string">E-Prime Primary Realtime Clock</Description><StartTime><Timestamp dt:dt="int">0</Timestamp><DateUtc dt:dt="string">2016-01-21T17:07:35Z</DateUtc></StartTime><FrequencyChanges><FrequencyChange><Frequency dt:dt="r8">2337939</Frequency><Timestamp dt:dt="r8">3414604903208</Timestamp><Current dt:dt="r8">0</Current><DateUtc dt:dt="string">2016-01-21T17:07:35Z</DateUtc></FrequencyChange></FrequencyChanges></Clock>\n	Fractal Experiment-414-1	60.020	1.0.0.253	1	106346625	Standard	2.0.10.356	2.0.10.356	01-21-2016	1/21/2016 5:07:35 PM	11:07:35	2.0.10.252	1	1	1	1	1	858	57	a	a4	fractal	Experiment	Images\fractal168.png	Images\fractal172.png	Images\fractal172.png	Images\fractal172.png	Images\fractal168.png	Images\fractal169.png	Images\fractal169.png	Images\fractal170.png	Images\fractal170.png	Images\fractal171.png	Images\fractal171.png	Images\fractal172.png	d	1	1	1	5537	152663	d	s
Fractal Experiment	414	1	<?xml version="1.0"?>\n<Clock xmlns:dt="urn:schemas-microsoft-com:datatypes"><Description dt:dt="string">E-Prime Primary Realtime Clock</Description><StartTime><Timestamp dt:dt="int">0</Timestamp><DateUtc dt:dt="string">2016-01-21T17:07:35Z</DateUtc></StartTime><FrequencyChanges><FrequencyChange><Frequency dt:dt="r8">2337939</Frequency><Timestamp dt:dt="r8">3414604903208</Timestamp><Current dt:dt="r8">0</Current><DateUtc dt:dt="string">2016-01-21T17:07:35Z</DateUtc></FrequencyChange></FrequencyChanges></Clock>\n	Fractal Experiment-414-1	60.020	1.0.0.253	1	106346625	Standard	2.0.10.356	2.0.10.356	01-21-2016	1/21/2016 5:07:35 PM	11:07:35	2.0.10.252	2	1	2	1	2	572	69	s	s5	fractal	Experiment	Images\fractal216.png	Images\fractal316.png	Images\fractal317.png	Images\fractal318.png	Images\fractal216.png	Images\fractal217.png	Images\fractal217.png	Images\fractal448.png	Images\fractal449.png	Images\fractal450.png	Images\fractal451.png	Images\fractal316.png	ss	0	1	2	18799	173239	dd	sd
